view_history,rt,stage,trial_type,trial_index,time_elapsed,internal_node_id,subject,thesis_project,experiment,sample,similarity,distribution,awareness,presentation,project_variation,current_project_choice_order,PROLIFIC_PID,STUDY_ID,SESSION_ID,responses,current_response,question_order,stimulus,button_pressed,dateCreated
"[{""page_index"":0,""viewing_time"":43.18813300000102}]",43.43173899999897,welcome,instructions,0,45,0.0-0.0-0.0,dv07fy1o4ajng5k,aggregation,experiment4,prolific,low,absent,naive,separate,4,21,NA,NA,NA,NA,NA,NA,NA,NA,02/09/2020 09:47:31
NA,177.3717029999915,id,survey-html-form,1,224,0.0-0.0-1.0-0.0,dv07fy1o4ajng5k,aggregation,experiment4,prolific,low,absent,naive,separate,4,21,NA,NA,NA,"{""prolific"":""test12347363785472516914""}",NA,NA,NA,NA,02/09/2020 09:47:31
NA,468.2425350000017,contact,survey-html-form,2,693,0.0-0.0-1.0-1.0,dv07fy1o4ajng5k,aggregation,experiment4,prolific,low,absent,naive,separate,4,21,NA,NA,NA,"{""contact"":""yes"",""address"":""test12348955969151726823""}",NA,NA,NA,NA,02/09/2020 09:47:31
NA,1866.364912999998,demographics,survey-html-form,3,2562,0.0-0.0-1.0-2.0,dv07fy1o4ajng5k,aggregation,experiment4,prolific,low,absent,naive,separate,4,21,NA,NA,NA,"{""sex"":""male"",""age"":""86"",""language"":""No"",""language_other"":"""",""business_edu"":""89"",""business_exp"":""67"",""current"":""yes""}",yes,NA,NA,NA,02/09/2020 09:47:31
NA,1877.222470000007,business_information,survey-html-form,4,4444,0.0-0.0-1.0-3.0-0.0,dv07fy1o4ajng5k,aggregation,experiment4,prolific,low,absent,naive,separate,4,21,NA,NA,NA,"{""company_name"":""test12345782543153672265"",""sector"":""Insurance - Pension, Financial, Health \tLeisure - Sports, Parks, Theater, Gambling"",""sector_other"":"""",""employees"":""1305409"",""revenue"":""326741"",""role_company"":""Chairman"",""role_company_other"":"""",""role_allocation"":""Provide information and analysis for the decision-makers at line of business level"",""role_allocation_other"":"""",""budget"":""421319""}",NA,NA,NA,NA,02/09/2020 09:47:31
"[{""page_index"":0,""viewing_time"":68.67458799999349},{""page_index"":1,""viewing_time"":65.26735600000666},{""page_index"":2,""viewing_time"":64.27503899999465}]",198.43175200000496,instructions,instructions,5,4643,0.0-0.0-2.0-0.0-0.0,dv07fy1o4ajng5k,aggregation,experiment4,prolific,low,absent,naive,separate,4,21,NA,NA,NA,NA,NA,NA,NA,NA,02/09/2020 09:47:31
NA,303.0319079999945,project_choice,survey-multi-choice,6,4950,0.0-0.0-2.0-5.0-0.0-0.0-0.0,dv07fy1o4ajng5k,aggregation,experiment4,prolific,low,absent,naive,separate,4,21,NA,NA,NA,"{""oil-well_offshore-Calgary-Canada_125_240_0.55"":""Yes""}",NA,[0],NA,NA,02/09/2020 09:47:31
NA,340.270489000005,project_choice,survey-multi-choice,7,5293,0.0-0.0-2.0-5.0-0.0-0.0-0.1,dv07fy1o4ajng5k,aggregation,experiment4,prolific,low,absent,naive,separate,4,21,NA,NA,NA,"{""microchip_aerospace_125_240_0.6"":""Yes""}",NA,[0],NA,NA,02/09/2020 09:47:31
NA,235.54281599999194,project_choice,survey-multi-choice,8,5531,0.0-0.0-2.0-5.0-0.0-0.0-0.2,dv07fy1o4ajng5k,aggregation,experiment4,prolific,low,absent,naive,separate,4,21,NA,NA,NA,"{""record-deal_folk_190_240_0.35"":""Yes""}",NA,[0],NA,NA,02/09/2020 09:47:31
NA,241.3259769999877,project_choice,survey-multi-choice,9,5774,0.0-0.0-2.0-5.0-0.0-0.0-0.3,dv07fy1o4ajng5k,aggregation,experiment4,prolific,low,absent,naive,separate,4,21,NA,NA,NA,"{""shipping-logistics_steel_185_240_0.4"":""Yes""}",NA,[0],NA,NA,02/09/2020 09:47:31
NA,233.2747770000051,project_choice,survey-multi-choice,10,6009,0.0-0.0-2.0-5.0-0.0-0.0-0.4,dv07fy1o4ajng5k,aggregation,experiment4,prolific,low,absent,naive,separate,4,21,NA,NA,NA,"{""restaurant-chain_greek_155_240_0.45"":""No""}",NA,[0],NA,NA,02/09/2020 09:47:31
NA,337.3756169999924,project_choice,survey-multi-choice,11,6349,0.0-0.0-2.0-5.0-0.0-0.0-0.5,dv07fy1o4ajng5k,aggregation,experiment4,prolific,low,absent,naive,separate,4,21,NA,NA,NA,"{""national-newspaper_celebrity-gossip_175_240_0.3"":""No""}",NA,[0],NA,NA,02/09/2020 09:47:31
NA,301.25441699999556,project_choice,survey-multi-choice,12,6653,0.0-0.0-2.0-5.0-0.0-0.0-0.6,dv07fy1o4ajng5k,aggregation,experiment4,prolific,low,absent,naive,separate,4,21,NA,NA,NA,"{""pharmaceutical_angina_135_240_0.6"":""No""}",NA,[0],NA,NA,02/09/2020 09:47:31
NA,286.4407340000107,project_choice,survey-multi-choice,13,6942,0.0-0.0-2.0-5.0-0.0-0.0-0.7,dv07fy1o4ajng5k,aggregation,experiment4,prolific,low,absent,naive,separate,4,21,NA,NA,NA,"{""railway_Dhaka-Division-Bangladesh_120_240_0.6"":""Yes""}",NA,[0],NA,NA,02/09/2020 09:47:31
NA,271.186193000005,project_choice,survey-multi-choice,14,7216,0.0-0.0-2.0-5.0-0.0-0.0-0.8,dv07fy1o4ajng5k,aggregation,experiment4,prolific,low,absent,naive,separate,4,21,NA,NA,NA,"{""GMO_virus-resistant-orange_175_240_0.45"":""Yes""}",NA,[0],NA,NA,02/09/2020 09:47:31
NA,259.27561799998966,project_choice,survey-multi-choice,15,7487,0.0-0.0-2.0-5.0-0.0-0.0-0.9,dv07fy1o4ajng5k,aggregation,experiment4,prolific,low,absent,naive,separate,4,21,NA,NA,NA,"{""high-rise-construction_45-core-and-outrigger_100_240_0.75"":""Yes""}",NA,[0],NA,NA,02/09/2020 09:47:31
NA,225.79933299999811,project_choice,survey-multi-choice,16,7715,0.0-0.0-2.0-5.0-0.0-0.0-0.10,dv07fy1o4ajng5k,aggregation,experiment4,prolific,low,absent,naive,separate,4,21,NA,NA,NA,"{""oil-well_onshore-Houston-US_135_240_0.55"":""No""}",NA,[0],NA,NA,02/09/2020 09:47:31
NA,358.5367780000006,project_choice,survey-multi-choice,17,8076,0.0-0.0-2.0-5.0-0.0-0.0-0.11,dv07fy1o4ajng5k,aggregation,experiment4,prolific,low,absent,naive,separate,4,21,NA,NA,NA,"{""microchip_personal-computer_150_240_0.45"":""Yes""}",NA,[0],NA,NA,02/09/2020 09:47:31
NA,247.21620500000063,project_choice,survey-multi-choice,18,8325,0.0-0.0-2.0-5.0-0.0-0.0-0.12,dv07fy1o4ajng5k,aggregation,experiment4,prolific,low,absent,naive,separate,4,21,NA,NA,NA,"{""record-deal_hip-hop_115_240_0.55"":""No""}",NA,[0],NA,NA,02/09/2020 09:47:31
NA,230.19020900000032,project_choice,survey-multi-choice,19,8557,0.0-0.0-2.0-5.0-0.0-0.0-0.13,dv07fy1o4ajng5k,aggregation,experiment4,prolific,low,absent,naive,separate,4,21,NA,NA,NA,"{""shipping-logistics_motorbike_180_240_0.35"":""No""}",NA,[0],NA,NA,02/09/2020 09:47:31
NA,231.25755300000492,project_choice,survey-multi-choice,20,8790,0.0-0.0-2.0-5.0-0.0-0.0-0.14,dv07fy1o4ajng5k,aggregation,experiment4,prolific,low,absent,naive,separate,4,21,NA,NA,NA,"{""restaurant-chain_italian_145_240_0.55"":""No""}",NA,[0],NA,NA,02/09/2020 09:47:31
NA,248.89741700002378,project_choice,survey-multi-choice,21,9041,0.0-0.0-2.0-5.0-0.0-0.0-0.15,dv07fy1o4ajng5k,aggregation,experiment4,prolific,low,absent,naive,separate,4,21,NA,NA,NA,"{""national-newspaper_electronics_195_240_0.3"":""No""}",NA,[0],NA,NA,02/09/2020 09:47:31
NA,330.8614210000087,project_choice,survey-multi-choice,22,9375,0.0-0.0-2.0-5.0-0.0-0.0-0.16,dv07fy1o4ajng5k,aggregation,experiment4,prolific,low,absent,naive,separate,4,21,NA,NA,NA,"{""pharmaceutical_leukaemia_115_240_0.7"":""No""}",NA,[0],NA,NA,02/09/2020 09:47:31
NA,236.90388599999278,project_choice,survey-multi-choice,23,9614,0.0-0.0-2.0-5.0-0.0-0.0-0.17,dv07fy1o4ajng5k,aggregation,experiment4,prolific,low,absent,naive,separate,4,21,NA,NA,NA,"{""railway_Guangdong-China_105_240_0.65"":""No""}",NA,[0],NA,NA,02/09/2020 09:47:31
NA,245.12258299998211,project_choice,survey-multi-choice,24,9862,0.0-0.0-2.0-5.0-0.0-0.0-0.18,dv07fy1o4ajng5k,aggregation,experiment4,prolific,low,absent,naive,separate,4,21,NA,NA,NA,"{""GMO_potato-crop-enriched-with-Vitamin-A_165_240_0.45"":""Yes""}",NA,[0],NA,NA,02/09/2020 09:47:31
NA,312.1991379999836,project_choice,survey-multi-choice,25,10176,0.0-0.0-2.0-5.0-0.0-0.0-0.19,dv07fy1o4ajng5k,aggregation,experiment4,prolific,low,absent,naive,separate,4,21,NA,NA,NA,"{""high-rise-construction_10-coupled-wall_105_240_0.7"":""Yes""}",NA,[0],NA,NA,02/09/2020 09:47:31
NA,217.69522400001006,project_expectation,survey-html-form,26,10396,0.0-0.0-3.0-0.0,dv07fy1o4ajng5k,aggregation,experiment4,prolific,low,absent,naive,separate,4,21,NA,NA,NA,"{""project_expectation"":""57""}",NA,NA,NA,NA,02/09/2020 09:47:31
NA,187.93477500000154,project_number,survey-html-form,27,10585,0.0-0.0-3.0-1.0,dv07fy1o4ajng5k,aggregation,experiment4,prolific,low,absent,naive,separate,4,21,NA,NA,NA,"{""project_number"":""18""}",NA,NA,NA,NA,02/09/2020 09:47:31
NA,260.0560079999923,portfolio_binary,html-button-response,28,10846,0.0-0.0-3.0-2.0-0.0,dv07fy1o4ajng5k,aggregation,experiment4,prolific,low,absent,naive,separate,4,21,NA,NA,NA,NA,NA,NA,"<p>
  <strong>Consider all the projects you saw. If you had to choose between investing in all of them, or investing in none of them, which would you choose?</strong>
</p>",0,02/09/2020 09:47:31
NA,253.8440300000093,portfolio_number,survey-html-form,29,11101,0.0-0.0-3.0-3.0-0.0,dv07fy1o4ajng5k,aggregation,experiment4,prolific,low,absent,naive,separate,4,21,NA,NA,NA,"{""portfolio_number"":""7""}",NA,NA,NA,NA,02/09/2020 09:47:31
"[{""page_index"":0,""viewing_time"":70.3281489999772},{""page_index"":1,""viewing_time"":85.45822499999667}]",155.96746299999722,debrief,instructions,30,11258,0.0-0.0-3.0-4.0,dv07fy1o4ajng5k,aggregation,experiment4,prolific,low,absent,naive,separate,4,21,NA,NA,NA,NA,NA,NA,NA,NA,02/09/2020 09:47:31
