"view_history","rt","stage","trial_type","trial_index","time_elapsed","internal_node_id","subject","thesis_project","experiment","sample","project_variation","anecdote_variation","anecdote_between","current_project_display_order","PROLIFIC_PID","STUDY_ID","SESSION_ID","url","responses","current_response","stimulus","button_pressed"
"[{""page_index"":0,""viewing_time"":5936.195000074804}]","5936.850000056438","welcome","instructions","0","5939","0.0-0.0-0.0","sxagvvtqbyhula9","anecdotes","experiment2","prolific","4","1","combined","6","5edc203396a7278dd3c731ed","604016aa51301a1e54c91c67","604037f857d38222a29f72a4","","","","",""
"[{""page_index"":0,""viewing_time"":31431.455000070855},{""page_index"":1,""viewing_time"":23529.31000001263},{""page_index"":2,""viewing_time"":12846.674999920651}]","67807.70500004292","pis","instructions","1","73747","0.0-0.0-1.0-0.0","sxagvvtqbyhula9","anecdotes","experiment2","prolific","4","1","combined","6","5edc203396a7278dd3c731ed","604016aa51301a1e54c91c67","604037f857d38222a29f72a4","","","","",""
"","21044.764999998733","consent","external-html","2","95711","0.0-0.0-1.0-1.0","sxagvvtqbyhula9","anecdotes","experiment2","prolific","4","1","combined","6","5edc203396a7278dd3c731ed","604016aa51301a1e54c91c67","604037f857d38222a29f72a4","resource/other/consent.html","","","",""
"","3971.2849999777973","id","survey-html-form","3","99689","0.0-0.0-1.0-2.0","sxagvvtqbyhula9","anecdotes","experiment2","prolific","4","1","combined","6","5edc203396a7278dd3c731ed","604016aa51301a1e54c91c67","604037f857d38222a29f72a4","","{""prolific"":""5edc203396a7278dd3c731ed""}","","",""
"","6140.065000043251","contact","survey-html-form","4","105830","0.0-0.0-1.0-3.0","sxagvvtqbyhula9","anecdotes","experiment2","prolific","4","1","combined","6","5edc203396a7278dd3c731ed","604016aa51301a1e54c91c67","604037f857d38222a29f72a4","","{""contact"":""no"",""address"":""""}","","",""
"","33770.36500000395","demographics","survey-html-form","5","139605","0.0-0.0-1.0-4.0","sxagvvtqbyhula9","anecdotes","experiment2","prolific","4","1","combined","6","5edc203396a7278dd3c731ed","604016aa51301a1e54c91c67","604037f857d38222a29f72a4","","{""sex"":""male"",""age"":""63"",""language"":""No"",""language_other"":"""",""business_edu"":""0"",""business_exp"":""22"",""current"":""no""}","no","",""
"","55696.91499997862","instructions","survey-html-form","6","195305","0.0-0.0-2.0-0.0-0.0","sxagvvtqbyhula9","anecdotes","experiment2","prolific","4","1","combined","6","5edc203396a7278dd3c731ed","604016aa51301a1e54c91c67","604037f857d38222a29f72a4","","{""instructions_test"":""5""}","","",""
"","24577.380000031553","interstitial","survey-html-form","7","219887","0.0-0.0-2.0-14.0-0.0-0.0-0.0-0.0-0.0","sxagvvtqbyhula9","anecdotes","experiment2","prolific","4","1","combined","6","5edc203396a7278dd3c731ed","604016aa51301a1e54c91c67","604037f857d38222a29f72a4","","{""interstitial_1"":""on""}","","",""
"","NaN","project_allocation","survey-html-form3","8","496483","0.0-0.0-2.0-14.0-0.0-0.0-0.0-0.0-1.0","sxagvvtqbyhula9","anecdotes","experiment2","prolific","4","1","combined","6","5edc203396a7278dd3c731ed","604016aa51301a1e54c91c67","604037f857d38222a29f72a4","","{""anecdote_high_negative_Refit_high-rise-construction_102_87_High-rises-built_8_Probability-that-the-builders-complete-construction-within-a-month-of-the-due-date_70_Number-of-tenant-expressions-of-interest_100_Primary-use_mixed-office-retail_comparison"":""80"",""anecdote_high_negative_Rural-Pass_railway_900_95_Railway-lines-built_5_Number-of-seats-filled-by-paying-customers-at-peak-hour_2000_Time-before-the-train-carriages-will-need-to-be-serviced_12_Operation-type_intracity_target"":""20""}","","",""
"","76043.61500008963","follow_up","survey-html-form","9","572530","0.0-0.0-2.0-14.0-0.0-0.0-0.0-0.0-2.0","sxagvvtqbyhula9","anecdotes","experiment2","prolific","4","1","combined","6","5edc203396a7278dd3c731ed","604016aa51301a1e54c91c67","604037f857d38222a29f72a4","","{""follow-up_anecdote_negative_high_rating_similarity-rating"":""1"",""follow-up_anecdote_negative_high_rating_relevance-specific-rating"":""7"",""follow-up_anecdote_negative_high_rating_relevance-general-rating"":""7"",""follow-up_anecdote_negative_high_text_justify"":""The same would be true for other projects""}","","",""
"","24583.719999995083","interstitial","survey-html-form","10","597117","0.0-0.0-2.0-14.0-0.0-0.0-0.0-0.1-0.1","sxagvvtqbyhula9","anecdotes","experiment2","prolific","4","1","combined","6","5edc203396a7278dd3c731ed","604016aa51301a1e54c91c67","604037f857d38222a29f72a4","","{""interstitial_4"":""on""}","","",""
"","NaN","project_allocation","survey-html-form3","11","725368","0.0-0.0-2.0-14.0-0.0-0.0-0.0-0.1-1.1","sxagvvtqbyhula9","anecdotes","experiment2","prolific","4","1","combined","6","5edc203396a7278dd3c731ed","604016aa51301a1e54c91c67","604037f857d38222a29f72a4","","{""anecdote_low_positive_Enfuel_oil-well_901_91_Oil-extracted_2000_Time-the-machinery-lasts-before-requiring-maintenance_7_Probability-of-finding-oil_80_Type-of-well_onshore_comparison"":""95"",""anecdote_low_positive_Codeck_software_100_90_Code-written_1000_Security-rating_85_Number-of-potential-customers-in-first-year_3_Target-users_ordinary-consumers_target"":""5""}","","",""
"","61692.135000019334","follow_up","survey-html-form","12","787063","0.0-0.0-2.0-14.0-0.0-0.0-0.0-0.1-2.1","sxagvvtqbyhula9","anecdotes","experiment2","prolific","4","1","combined","6","5edc203396a7278dd3c731ed","604016aa51301a1e54c91c67","604037f857d38222a29f72a4","","{""follow-up_anecdote_positive_low_rating_similarity-rating"":""1"",""follow-up_anecdote_positive_low_rating_relevance-specific-rating"":""1"",""follow-up_anecdote_positive_low_rating_relevance-general-rating"":""1"",""follow-up_anecdote_positive_low_text_justify"":""did not see the continim""}","","",""
"","11704.425000003539","interstitial","survey-html-form","13","798770","0.0-0.0-2.0-14.0-0.0-0.0-0.0-0.2-0.2","sxagvvtqbyhula9","anecdotes","experiment2","prolific","4","1","combined","6","5edc203396a7278dd3c731ed","604016aa51301a1e54c91c67","604037f857d38222a29f72a4","","{""interstitial_2"":""on""}","","",""
"","NaN","project_allocation","survey-html-form3","14","885618","0.0-0.0-2.0-14.0-0.0-0.0-0.0-0.2-1.2","sxagvvtqbyhula9","anecdotes","experiment2","prolific","4","1","combined","6","5edc203396a7278dd3c731ed","604016aa51301a1e54c91c67","604037f857d38222a29f72a4","","{""anecdote_high_positive_Grown-Media_national-newspaper_102_90_Newspapers-printed_50000_Number-of-weekly-advertisers_80_Ink-that-is-not-discarded-due-to-impurities_5000_Payment-model_advertising_target"":""50"",""anecdote_high_positive_Healthgenic_pharmaceutical_904_95_Pills-pressed_300000_Shelf-life_20_Probability-of-symptom-reduction-after-a-week_90_Drug-type_over-the-counter_comparison"":""50""}","","",""
"","51222.59500005748","follow_up","survey-html-form","15","936842","0.0-0.0-2.0-14.0-0.0-0.0-0.0-0.2-2.2","sxagvvtqbyhula9","anecdotes","experiment2","prolific","4","1","combined","6","5edc203396a7278dd3c731ed","604016aa51301a1e54c91c67","604037f857d38222a29f72a4","","{""follow-up_anecdote_positive_high_rating_similarity-rating"":""1"",""follow-up_anecdote_positive_high_rating_relevance-specific-rating"":""1"",""follow-up_anecdote_positive_high_rating_relevance-general-rating"":""7"",""follow-up_anecdote_positive_high_text_justify"":""that was more then mentioned""}","","",""
"","8850.749999983236","interstitial","survey-html-form","16","945696","0.0-0.0-2.0-14.0-0.0-0.0-0.0-0.3-0.3","sxagvvtqbyhula9","anecdotes","experiment2","prolific","4","1","combined","6","5edc203396a7278dd3c731ed","604016aa51301a1e54c91c67","604037f857d38222a29f72a4","","{""interstitial_3"":""on""}","","",""
"","NaN","project_allocation","survey-html-form3","17","1031556","0.0-0.0-2.0-14.0-0.0-0.0-0.0-0.3-1.3","sxagvvtqbyhula9","anecdotes","experiment2","prolific","4","1","combined","6","5edc203396a7278dd3c731ed","604016aa51301a1e54c91c67","604037f857d38222a29f72a4","","{""anecdote_low_negative_Poppin_record-label_102_86_Record-projects-completed_8_Radio-listenership-nationally_2_Relevant-network-connections_13_Genre_pop_comparison"":""90"",""anecdote_low_negative_Savoro_restaurant-chain_903_93_Restaurants-established_9_Number-of-reservations-on-a-Saturday-night_100_Positive-reviews_40_Restaurant-type_casual-sit-down-dining_target"":""10""}","","",""
"","32431.194999953732","follow_up","survey-html-form","18","1063989","0.0-0.0-2.0-14.0-0.0-0.0-0.0-0.3-2.3","sxagvvtqbyhula9","anecdotes","experiment2","prolific","4","1","combined","6","5edc203396a7278dd3c731ed","604016aa51301a1e54c91c67","604037f857d38222a29f72a4","","{""follow-up_anecdote_negative_low_rating_similarity-rating"":""1"",""follow-up_anecdote_negative_low_rating_relevance-specific-rating"":""1"",""follow-up_anecdote_negative_low_rating_relevance-general-rating"":""1"",""follow-up_anecdote_negative_low_text_justify"":""could not figure same""}","","",""
"","2960.1800000527874","interstitial","survey-html-form","19","1066952","0.0-0.0-2.0-14.0-0.0-0.0-0.0-0.4-0.4","sxagvvtqbyhula9","anecdotes","experiment2","prolific","4","1","combined","6","5edc203396a7278dd3c731ed","604016aa51301a1e54c91c67","604037f857d38222a29f72a4","","{}","","",""
"","NaN","project_allocation","survey-html-form3","20","1110301","0.0-0.0-2.0-14.0-0.0-0.0-0.0-0.4-1.4","sxagvvtqbyhula9","anecdotes","experiment2","prolific","4","1","combined","6","5edc203396a7278dd3c731ed","604016aa51301a1e54c91c67","604037f857d38222a29f72a4","","{""statistics-only_NA_NA_Solgistics_shipping-logistics_105_90_Packages-shipped_800_Number-of-orders-that-do-not-spend-time-in-a-bottleneck_400_Average-accuracy-of-shipments_90_Shipping-type_freight_comparison"":""90"",""statistics-only_NA_NA_Altchip_microchip_905_93_Microchips-produced_4000_Usable-semiconductor-yield-after-testing_60_Compatible-devices-in-the-market_75_Type-of-chip-architecture_Complex-Instruction-Set-Computing_target"":""10""}","","",""
"","2277.0800000289455","follow_up","survey-html-form","21","1112580","0.0-0.0-2.0-14.0-0.0-0.0-0.0-0.4-2.4","sxagvvtqbyhula9","anecdotes","experiment2","prolific","4","1","combined","6","5edc203396a7278dd3c731ed","604016aa51301a1e54c91c67","604037f857d38222a29f72a4","","{}","","",""
"[{""page_index"":0,""viewing_time"":20612.88999998942},{""page_index"":1,""viewing_time"":10527.869999990799}]","31141.52499998454","debrief","instructions","22","1143724","0.0-0.0-3.0-0.0","sxagvvtqbyhula9","anecdotes","experiment2","prolific","4","1","combined","6","5edc203396a7278dd3c731ed","604016aa51301a1e54c91c67","604037f857d38222a29f72a4","","","","",""
"","7317.975000012666","end","html-button-response","23","1151044","0.0-0.0-3.0-1.0","sxagvvtqbyhula9","anecdotes","experiment2","prolific","4","1","combined","6","5edc203396a7278dd3c731ed","604016aa51301a1e54c91c67","604037f857d38222a29f72a4","","","","<div>
  <p>Press below to complete the experiment.</p>
  <p>The next page will be a blank white screen. It will take approximately 10 seconds to save your data, after which you will be automatically redirected back to Prolific. Please do not exit until you have been redirected back to Prolific.</p>
  <p>Thank you!</p>
</div>","0"
