"view_history","rt","stage","trial_type","trial_index","time_elapsed","internal_node_id","subject","thesis_project","experiment","sample","project_variation","anecdote_variation","anecdote_between","current_project_display_order","PROLIFIC_PID","STUDY_ID","SESSION_ID","url","responses","current_response","stimulus","button_pressed"
"[{""page_index"":0,""viewing_time"":3878.9600001182407}]","3881.810000166297","welcome","instructions","0","3892","0.0-0.0-0.0","65b65nljo4qfvo3","anecdotes","experiment2","prolific","4","2","anecdote_only","6","5a454e442f91ec0001dcb66c","604016aa51301a1e54c91c67","604184d706ab9c16d87e4ff2","","","","",""
"[{""page_index"":0,""viewing_time"":16797.590000089258},{""page_index"":1,""viewing_time"":22630.03999995999},{""page_index"":2,""viewing_time"":13318.440000060946}]","52747.110000113025","pis","instructions","1","56644","0.0-0.0-1.0-0.0","65b65nljo4qfvo3","anecdotes","experiment2","prolific","4","2","anecdote_only","6","5a454e442f91ec0001dcb66c","604016aa51301a1e54c91c67","604184d706ab9c16d87e4ff2","","","","",""
"","12638.964999932796","consent","external-html","2","69903","0.0-0.0-1.0-1.0","65b65nljo4qfvo3","anecdotes","experiment2","prolific","4","2","anecdote_only","6","5a454e442f91ec0001dcb66c","604016aa51301a1e54c91c67","604184d706ab9c16d87e4ff2","resource/other/consent.html","","","",""
"","2500.9400001727045","id","survey-html-form","3","72411","0.0-0.0-1.0-2.0","65b65nljo4qfvo3","anecdotes","experiment2","prolific","4","2","anecdote_only","6","5a454e442f91ec0001dcb66c","604016aa51301a1e54c91c67","604184d706ab9c16d87e4ff2","","{""prolific"":""5a454e442f91ec0001dcb66c""}","","",""
"","4613.324999809265","contact","survey-html-form","4","77029","0.0-0.0-1.0-3.0","65b65nljo4qfvo3","anecdotes","experiment2","prolific","4","2","anecdote_only","6","5a454e442f91ec0001dcb66c","604016aa51301a1e54c91c67","604184d706ab9c16d87e4ff2","","{""contact"":""no"",""address"":""""}","","",""
"","28611.159999854863","demographics","survey-html-form","5","105657","0.0-0.0-1.0-4.0","65b65nljo4qfvo3","anecdotes","experiment2","prolific","4","2","anecdote_only","6","5a454e442f91ec0001dcb66c","604016aa51301a1e54c91c67","604184d706ab9c16d87e4ff2","","{""sex"":""female"",""age"":""48"",""language"":""No"",""language_other"":"""",""business_edu"":""0"",""business_exp"":""5"",""current"":""yes""}","yes","",""
"","102776.254999917","business_information","survey-html-form","6","208454","0.0-0.0-1.0-5.0-0.0","65b65nljo4qfvo3","anecdotes","experiment2","prolific","4","2","anecdote_only","6","5a454e442f91ec0001dcb66c","604016aa51301a1e54c91c67","604184d706ab9c16d87e4ff2","","{""company_name"":"""",""sector"":""Retail, Wholesale, Restaurants"",""sector_other"":"""",""employees"":""58"",""revenue"":""2"",""role_company"":""Managing Director"",""role_company_other"":"""",""role_allocation"":""Decide on allocations for business unit or division"",""role_allocation_other"":"""",""budget"":""0""}","","",""
"","31727.375000016764","instructions","survey-html-form","7","240191","0.0-0.0-2.0-0.0-0.0","65b65nljo4qfvo3","anecdotes","experiment2","prolific","4","2","anecdote_only","6","5a454e442f91ec0001dcb66c","604016aa51301a1e54c91c67","604184d706ab9c16d87e4ff2","","{""instructions_test"":""5""}","","",""
"","18176.759999943897","interstitial","survey-html-form","8","258385","0.0-0.0-2.0-15.0-0.0-0.0-0.0-0.0-0.0","65b65nljo4qfvo3","anecdotes","experiment2","prolific","4","2","anecdote_only","6","5a454e442f91ec0001dcb66c","604016aa51301a1e54c91c67","604184d706ab9c16d87e4ff2","","{""interstitial_3"":""on""}","","",""
"","NaN","project_allocation","survey-html-form3","9","373911","0.0-0.0-2.0-15.0-0.0-0.0-0.0-0.0-1.0","65b65nljo4qfvo3","anecdotes","experiment2","prolific","4","2","anecdote_only","6","5a454e442f91ec0001dcb66c","604016aa51301a1e54c91c67","604184d706ab9c16d87e4ff2","","{""anecdote_low_negative_Vital-Records_record-label_100_88_Record-projects-completed_5_Radio-listenership-nationally_1_Relevant-network-connections_8_Genre_rock_comparison"":""65"",""anecdote_low_negative_Dinerly_restaurant-chain_904_94_Restaurants-established_5_Number-of-reservations-on-a-Saturday-night_60_Positive-reviews_24_Restaurant-type_fast-food_target"":""35""}","","",""
"","102625.0299999956","follow_up","survey-html-form","10","476542","0.0-0.0-2.0-15.0-0.0-0.0-0.0-0.0-2.0","65b65nljo4qfvo3","anecdotes","experiment2","prolific","4","2","anecdote_only","6","5a454e442f91ec0001dcb66c","604016aa51301a1e54c91c67","604184d706ab9c16d87e4ff2","","{""follow-up_anecdote_negative_low_rating_similarity-rating"":""6"",""follow-up_anecdote_negative_low_rating_relevance-specific-rating"":""5"",""follow-up_anecdote_negative_low_rating_relevance-general-rating"":""5"",""follow-up_anecdote_negative_low_text_justify"":""The number of reservations on a Saturday, positive reviews were similar between the two though the number of openings per year were very different. I think that the high number of reviews needed per month is what really stood out to me and felt very similar.""}","","",""
"","9118.305000010878","interstitial","survey-html-form","11","485671","0.0-0.0-2.0-15.0-0.0-0.0-0.0-0.1-0.1","65b65nljo4qfvo3","anecdotes","experiment2","prolific","4","2","anecdote_only","6","5a454e442f91ec0001dcb66c","604016aa51301a1e54c91c67","604184d706ab9c16d87e4ff2","","{""interstitial_2"":""on""}","","",""
"","NaN","project_allocation","survey-html-form3","12","584141","0.0-0.0-2.0-15.0-0.0-0.0-0.0-0.1-1.1","65b65nljo4qfvo3","anecdotes","experiment2","prolific","4","2","anecdote_only","6","5a454e442f91ec0001dcb66c","604016aa51301a1e54c91c67","604184d706ab9c16d87e4ff2","","{""anecdote_high_positive_Pressbloom_national-newspaper_104_88_Newspapers-printed_60000_Number-of-weekly-advertisers_96_Ink-that-is-not-discarded-due-to-impurities_6000_Payment-model_advertising_target"":""70"",""anecdote_high_positive_Pharmacore_pharmaceutical_903_93_Pills-pressed_360000_Shelf-life_24_Probability-of-symptom-reduction-after-a-week_94_Drug-type_over-the-counter_comparison"":""30""}","","",""
"","103876.64999999106","follow_up","survey-html-form","13","688024","0.0-0.0-2.0-15.0-0.0-0.0-0.0-0.1-2.1","65b65nljo4qfvo3","anecdotes","experiment2","prolific","4","2","anecdote_only","6","5a454e442f91ec0001dcb66c","604016aa51301a1e54c91c67","604184d706ab9c16d87e4ff2","","{""follow-up_anecdote_positive_high_rating_similarity-rating"":""7"",""follow-up_anecdote_positive_high_rating_relevance-specific-rating"":""7"",""follow-up_anecdote_positive_high_rating_relevance-general-rating"":""5"",""follow-up_anecdote_positive_high_text_justify"":""The newspapers felt so similar so I saw no reason why the opportunity to invest wouldn't be successful.  Pharmaceuticals feel like a very risky venture no matter what as the shelves are full of over the counter choices.  It might be successful but probably not as a new one to an established field. ""}","","",""
"","6275.734999915585","interstitial","survey-html-form","14","694309","0.0-0.0-2.0-15.0-0.0-0.0-0.0-0.2-0.2","65b65nljo4qfvo3","anecdotes","experiment2","prolific","4","2","anecdote_only","6","5a454e442f91ec0001dcb66c","604016aa51301a1e54c91c67","604184d706ab9c16d87e4ff2","","{""interstitial_4"":""on""}","","",""
"","NaN","project_allocation","survey-html-form3","15","776721","0.0-0.0-2.0-15.0-0.0-0.0-0.0-0.2-1.2","65b65nljo4qfvo3","anecdotes","experiment2","prolific","4","2","anecdote_only","6","5a454e442f91ec0001dcb66c","604016aa51301a1e54c91c67","604184d706ab9c16d87e4ff2","","{""anecdote_low_positive_Refinera_oil-well_905_92_Oil-extracted_2800_Time-the-machinery-lasts-before-requiring-maintenance_10_Probability-of-finding-oil_88_Type-of-well_offshore_comparison"":""50"",""anecdote_low_positive_Cweb_software_102_90_Code-written_1400_Security-rating_119_Number-of-potential-customers-in-first-year_4_Target-users_enterprise_target"":""50""}","","",""
"","88931.71999999322","follow_up","survey-html-form","16","865661","0.0-0.0-2.0-15.0-0.0-0.0-0.0-0.2-2.2","65b65nljo4qfvo3","anecdotes","experiment2","prolific","4","2","anecdote_only","6","5a454e442f91ec0001dcb66c","604016aa51301a1e54c91c67","604184d706ab9c16d87e4ff2","","{""follow-up_anecdote_positive_low_rating_similarity-rating"":""5"",""follow-up_anecdote_positive_low_rating_relevance-specific-rating"":""6"",""follow-up_anecdote_positive_low_rating_relevance-general-rating"":""5"",""follow-up_anecdote_positive_low_text_justify"":""This one really depends on what they need to reach to be successful.  The opportunity case has much larger numbers as far as number of new clients and really all the target points.  Those numbers feel very high compared to the case study and the business structures were different.""}","","",""
"","4937.22500000149","interstitial","survey-html-form","17","870607","0.0-0.0-2.0-15.0-0.0-0.0-0.0-0.3-0.3","65b65nljo4qfvo3","anecdotes","experiment2","prolific","4","2","anecdote_only","6","5a454e442f91ec0001dcb66c","604016aa51301a1e54c91c67","604184d706ab9c16d87e4ff2","","{""interstitial_5"":""on""}","","",""
"","NaN","project_allocation","survey-html-form3","18","946375","0.0-0.0-2.0-15.0-0.0-0.0-0.0-0.3-1.3","65b65nljo4qfvo3","anecdotes","experiment2","prolific","4","2","anecdote_only","6","5a454e442f91ec0001dcb66c","604016aa51301a1e54c91c67","604184d706ab9c16d87e4ff2","","{""statistics-only_NA_NA_Logivia_shipping-logistics_103_87_Packages-shipped_800_Number-of-orders-that-do-not-spend-time-in-a-bottleneck_400_Average-accuracy-of-shipments_90_Shipping-type_parcel_comparison"":""20"",""statistics-only_NA_NA_Microxy_microchip_902_94_Microchips-produced_4000_Usable-semiconductor-yield-after-testing_60_Compatible-devices-in-the-market_75_Type-of-chip-architecture_Reduced-Instruction-Set-Computing_target"":""80""}","","",""
"","1547.1499999985099","follow_up","survey-html-form","19","947927","0.0-0.0-2.0-15.0-0.0-0.0-0.0-0.3-2.3","65b65nljo4qfvo3","anecdotes","experiment2","prolific","4","2","anecdote_only","6","5a454e442f91ec0001dcb66c","604016aa51301a1e54c91c67","604184d706ab9c16d87e4ff2","","{}","","",""
"","12203.604999929667","interstitial","survey-html-form","20","960141","0.0-0.0-2.0-15.0-0.0-0.0-0.0-0.4-0.4","65b65nljo4qfvo3","anecdotes","experiment2","prolific","4","2","anecdote_only","6","5a454e442f91ec0001dcb66c","604016aa51301a1e54c91c67","604184d706ab9c16d87e4ff2","","{""interstitial_1"":""on""}","","",""
"","NaN","project_allocation","survey-html-form3","21","1049065","0.0-0.0-2.0-15.0-0.0-0.0-0.0-0.4-1.4","65b65nljo4qfvo3","anecdotes","experiment2","prolific","4","2","anecdote_only","6","5a454e442f91ec0001dcb66c","604016aa51301a1e54c91c67","604184d706ab9c16d87e4ff2","","{""anecdote_high_negative_Railmont_railway_902_94_Railway-lines-built_4_Number-of-seats-filled-by-paying-customers-at-peak-hour_1600_Time-before-the-train-carriages-will-need-to-be-serviced_10_Operation-type_intracity_target"":""40"",""anecdote_high_negative_Erectic_high-rise-construction_104_89_High-rises-built_6_Probability-that-the-builders-complete-construction-within-a-month-of-the-due-date_66_Number-of-tenant-expressions-of-interest_80_Primary-use_mixed-office-retail_comparison"":""60""}","","",""
"","71101.88500001095","follow_up","survey-html-form","22","1120174","0.0-0.0-2.0-15.0-0.0-0.0-0.0-0.4-2.4","65b65nljo4qfvo3","anecdotes","experiment2","prolific","4","2","anecdote_only","6","5a454e442f91ec0001dcb66c","604016aa51301a1e54c91c67","604184d706ab9c16d87e4ff2","","{""follow-up_anecdote_negative_high_rating_similarity-rating"":""6"",""follow-up_anecdote_negative_high_rating_relevance-specific-rating"":""5"",""follow-up_anecdote_negative_high_rating_relevance-general-rating"":""4"",""follow-up_anecdote_negative_high_text_justify"":""Their failure was based on oil prices and their centralized organization.  I think that the oil prices and their slow response was the biggest cause of their failure so I am hesitant to base too much on this failure going forward.""}","","",""
"[{""page_index"":0,""viewing_time"":3426.2949998956174},{""page_index"":1,""viewing_time"":5686.350000090897}]","9115.0899999775","debrief","instructions","23","1129299","0.0-0.0-3.0-0.0","65b65nljo4qfvo3","anecdotes","experiment2","prolific","4","2","anecdote_only","6","5a454e442f91ec0001dcb66c","604016aa51301a1e54c91c67","604184d706ab9c16d87e4ff2","","","","",""
"","3744.660000083968","end","html-button-response","24","1133048","0.0-0.0-3.0-1.0","65b65nljo4qfvo3","anecdotes","experiment2","prolific","4","2","anecdote_only","6","5a454e442f91ec0001dcb66c","604016aa51301a1e54c91c67","604184d706ab9c16d87e4ff2","","","","<div>
  <p>Press below to complete the experiment.</p>
  <p>The next page will be a blank white screen. It will take approximately 10 seconds to save your data, after which you will be automatically redirected back to Prolific. Please do not exit until you have been redirected back to Prolific.</p>
  <p>Thank you!</p>
</div>","0"
