"view_history","rt","stage","trial_type","trial_index","time_elapsed","internal_node_id","subject","thesis_project","experiment","sample","project_variation","anecdote_variation","anecdote_between","current_project_display_order","PROLIFIC_PID","STUDY_ID","SESSION_ID","url","responses","current_response","stimulus","button_pressed"
"[{""page_index"":0,""viewing_time"":4799.714999986463}]","4800.21499999566","welcome","instructions","0","4801","0.0-0.0-0.0","7t1r4b6doyp05nb","anecdotes","experiment2","prolific","3","2","combined","6","6010d8a55ccbc64789fcbd03","604016aa51301a1e54c91c67","6041a479dc31951b9481d170","","","","",""
"[{""page_index"":0,""viewing_time"":39956.28999998735},{""page_index"":1,""viewing_time"":54479.58500000823},{""page_index"":2,""viewing_time"":17470.45999999682}]","111906.61999999429","pis","instructions","1","116708","0.0-0.0-1.0-0.0","7t1r4b6doyp05nb","anecdotes","experiment2","prolific","3","2","combined","6","6010d8a55ccbc64789fcbd03","604016aa51301a1e54c91c67","6041a479dc31951b9481d170","","","","",""
"","7498.324999993201","consent","external-html","2","124704","0.0-0.0-1.0-1.0","7t1r4b6doyp05nb","anecdotes","experiment2","prolific","3","2","combined","6","6010d8a55ccbc64789fcbd03","604016aa51301a1e54c91c67","6041a479dc31951b9481d170","resource/other/consent.html","","","",""
"","2054.839999997057","id","survey-html-form","3","126763","0.0-0.0-1.0-2.0","7t1r4b6doyp05nb","anecdotes","experiment2","prolific","3","2","combined","6","6010d8a55ccbc64789fcbd03","604016aa51301a1e54c91c67","6041a479dc31951b9481d170","","{""prolific"":""6010d8a55ccbc64789fcbd03""}","","",""
"","5548.684999987017","contact","survey-html-form","4","132312","0.0-0.0-1.0-3.0","7t1r4b6doyp05nb","anecdotes","experiment2","prolific","3","2","combined","6","6010d8a55ccbc64789fcbd03","604016aa51301a1e54c91c67","6041a479dc31951b9481d170","","{""contact"":""no"",""address"":""""}","","",""
"","19465.33000000636","demographics","survey-html-form","5","151781","0.0-0.0-1.0-4.0","7t1r4b6doyp05nb","anecdotes","experiment2","prolific","3","2","combined","6","6010d8a55ccbc64789fcbd03","604016aa51301a1e54c91c67","6041a479dc31951b9481d170","","{""sex"":""female"",""age"":""31"",""language"":""No"",""language_other"":"""",""business_edu"":""0"",""business_exp"":""10"",""current"":""no""}","no","",""
"","27289.000000004307","instructions","survey-html-form","6","179073","0.0-0.0-2.0-0.0-0.0","7t1r4b6doyp05nb","anecdotes","experiment2","prolific","3","2","combined","6","6010d8a55ccbc64789fcbd03","604016aa51301a1e54c91c67","6041a479dc31951b9481d170","","{""instructions_test"":""5""}","","",""
"","14409.849999996368","interstitial","survey-html-form","7","193486","0.0-0.0-2.0-12.0-0.0-0.0-0.0-0.0-0.0","7t1r4b6doyp05nb","anecdotes","experiment2","prolific","3","2","combined","6","6010d8a55ccbc64789fcbd03","604016aa51301a1e54c91c67","6041a479dc31951b9481d170","","{""interstitial_4"":""on""}","","",""
"","NaN","project_allocation","survey-html-form3","8","359091","0.0-0.0-2.0-12.0-0.0-0.0-0.0-0.0-1.0","7t1r4b6doyp05nb","anecdotes","experiment2","prolific","3","2","combined","6","6010d8a55ccbc64789fcbd03","604016aa51301a1e54c91c67","6041a479dc31951b9481d170","","{""anecdote_low_positive_Pharmacore_pharmaceutical_904_95_Pills-pressed_420000_Shelf-life_28_Probability-of-symptom-reduction-after-a-week_99_Drug-type_over-the-counter_comparison"":""85"",""anecdote_low_positive_Pressbloom_national-newspaper_102_90_Newspapers-printed_70000_Number-of-weekly-advertisers_112_Ink-that-is-not-discarded-due-to-impurities_7000_Payment-model_advertising_target"":""15""}","","",""
"","54816.47499999963","follow_up","survey-html-form","9","413909","0.0-0.0-2.0-12.0-0.0-0.0-0.0-0.0-2.0","7t1r4b6doyp05nb","anecdotes","experiment2","prolific","3","2","combined","6","6010d8a55ccbc64789fcbd03","604016aa51301a1e54c91c67","6041a479dc31951b9481d170","","{""follow-up_anecdote_positive_low_rating_similarity-rating"":""5"",""follow-up_anecdote_positive_low_rating_relevance-specific-rating"":""6"",""follow-up_anecdote_positive_low_rating_relevance-general-rating"":""6"",""follow-up_anecdote_positive_low_text_justify"":""I would like more information on target audience.""}","","",""
"","12181.174999990617","interstitial","survey-html-form","10","426093","0.0-0.0-2.0-12.0-0.0-0.0-0.0-0.1-0.1","7t1r4b6doyp05nb","anecdotes","experiment2","prolific","3","2","combined","6","6010d8a55ccbc64789fcbd03","604016aa51301a1e54c91c67","6041a479dc31951b9481d170","","{""interstitial_3"":""on""}","","",""
"","NaN","project_allocation","survey-html-form3","11","492131","0.0-0.0-2.0-12.0-0.0-0.0-0.0-0.1-1.1","7t1r4b6doyp05nb","anecdotes","experiment2","prolific","3","2","combined","6","6010d8a55ccbc64789fcbd03","604016aa51301a1e54c91c67","6041a479dc31951b9481d170","","{""anecdote_low_negative_Logivia_shipping-logistics_105_90_Packages-shipped_480_Number-of-orders-that-do-not-spend-time-in-a-bottleneck_240_Average-accuracy-of-shipments_81_Shipping-type_parcel_comparison"":""65"",""anecdote_low_negative_Microxy_microchip_905_93_Microchips-produced_2400_Usable-semiconductor-yield-after-testing_54_Compatible-devices-in-the-market_68_Type-of-chip-architecture_Reduced-Instruction-Set-Computing_target"":""35""}","","",""
"","55692.734999989625","follow_up","survey-html-form","12","547824","0.0-0.0-2.0-12.0-0.0-0.0-0.0-0.1-2.1","7t1r4b6doyp05nb","anecdotes","experiment2","prolific","3","2","combined","6","6010d8a55ccbc64789fcbd03","604016aa51301a1e54c91c67","6041a479dc31951b9481d170","","{""follow-up_anecdote_negative_low_rating_similarity-rating"":""5"",""follow-up_anecdote_negative_low_rating_relevance-specific-rating"":""5"",""follow-up_anecdote_negative_low_rating_relevance-general-rating"":""5"",""follow-up_anecdote_negative_low_text_justify"":""They seem similar but the lower project seems more reliable despite the information provided given that the marketshare of devices compatible with the other company was just 58%""}","","",""
"","7010.769999993499","interstitial","survey-html-form","13","554838","0.0-0.0-2.0-12.0-0.0-0.0-0.0-0.2-0.2","7t1r4b6doyp05nb","anecdotes","experiment2","prolific","3","2","combined","6","6010d8a55ccbc64789fcbd03","604016aa51301a1e54c91c67","6041a479dc31951b9481d170","","{""interstitial_1"":""on""}","","",""
"","NaN","project_allocation","survey-html-form3","14","628529","0.0-0.0-2.0-12.0-0.0-0.0-0.0-0.2-1.2","7t1r4b6doyp05nb","anecdotes","experiment2","prolific","3","2","combined","6","6010d8a55ccbc64789fcbd03","604016aa51301a1e54c91c67","6041a479dc31951b9481d170","","{""anecdote_high_negative_Refinera_oil-well_100_90_Oil-extracted_1600_Time-the-machinery-lasts-before-requiring-maintenance_6_Probability-of-finding-oil_76_Type-of-well_offshore_comparison"":""100"",""anecdote_high_negative_Cweb_software_901_91_Code-written_800_Security-rating_68_Number-of-potential-customers-in-first-year_2_Target-users_enterprise_target"":""0""}","","",""
"","56160.424999994575","follow_up","survey-html-form","15","684691","0.0-0.0-2.0-12.0-0.0-0.0-0.0-0.2-2.2","7t1r4b6doyp05nb","anecdotes","experiment2","prolific","3","2","combined","6","6010d8a55ccbc64789fcbd03","604016aa51301a1e54c91c67","6041a479dc31951b9481d170","","{""follow-up_anecdote_negative_high_rating_similarity-rating"":""5"",""follow-up_anecdote_negative_high_rating_relevance-specific-rating"":""5"",""follow-up_anecdote_negative_high_rating_relevance-general-rating"":""6"",""follow-up_anecdote_negative_high_text_justify"":""It seems relevant but the other company was an oil company so I'm not certain what to do there. They werent going to write enough lines of code either.""}","","",""
"","3350.255000012112","interstitial","survey-html-form","16","688043","0.0-0.0-2.0-12.0-0.0-0.0-0.0-0.3-0.3","7t1r4b6doyp05nb","anecdotes","experiment2","prolific","3","2","combined","6","6010d8a55ccbc64789fcbd03","604016aa51301a1e54c91c67","6041a479dc31951b9481d170","","{}","","",""
"","NaN","project_allocation","survey-html-form3","17","752867","0.0-0.0-2.0-12.0-0.0-0.0-0.0-0.3-1.3","7t1r4b6doyp05nb","anecdotes","experiment2","prolific","3","2","combined","6","6010d8a55ccbc64789fcbd03","604016aa51301a1e54c91c67","6041a479dc31951b9481d170","","{""statistics-only_NA_NA_Dinerly_restaurant-chain_903_93_Restaurants-established_9_Number-of-reservations-on-a-Saturday-night_100_Positive-reviews_40_Restaurant-type_fast-food_target"":""87"",""statistics-only_NA_NA_Vital-Records_record-label_102_86_Record-projects-completed_8_Radio-listenership-nationally_2_Relevant-network-connections_13_Genre_rock_comparison"":""13""}","","",""
"","2394.604999994044","follow_up","survey-html-form","18","755263","0.0-0.0-2.0-12.0-0.0-0.0-0.0-0.3-2.3","7t1r4b6doyp05nb","anecdotes","experiment2","prolific","3","2","combined","6","6010d8a55ccbc64789fcbd03","604016aa51301a1e54c91c67","6041a479dc31951b9481d170","","{}","","",""
"","6100.265000000945","interstitial","survey-html-form","19","761365","0.0-0.0-2.0-12.0-0.0-0.0-0.0-0.4-0.4","7t1r4b6doyp05nb","anecdotes","experiment2","prolific","3","2","combined","6","6010d8a55ccbc64789fcbd03","604016aa51301a1e54c91c67","6041a479dc31951b9481d170","","{""interstitial_2"":""on""}","","",""
"","NaN","project_allocation","survey-html-form3","20","868508","0.0-0.0-2.0-12.0-0.0-0.0-0.0-0.4-1.4","7t1r4b6doyp05nb","anecdotes","experiment2","prolific","3","2","combined","6","6010d8a55ccbc64789fcbd03","604016aa51301a1e54c91c67","6041a479dc31951b9481d170","","{""anecdote_high_positive_Railmont_railway_102_87_Railway-lines-built_6_Number-of-seats-filled-by-paying-customers-at-peak-hour_2400_Time-before-the-train-carriages-will-need-to-be-serviced_14_Operation-type_intracity_target"":""90"",""anecdote_high_positive_Erectic_high-rise-construction_900_95_High-rises-built_10_Probability-that-the-builders-complete-construction-within-a-month-of-the-due-date_74_Number-of-tenant-expressions-of-interest_120_Primary-use_mixed-office-retail_comparison"":""10""}","","",""
"","59528.52500000154","follow_up","survey-html-form","21","928037","0.0-0.0-2.0-12.0-0.0-0.0-0.0-0.4-2.4","7t1r4b6doyp05nb","anecdotes","experiment2","prolific","3","2","combined","6","6010d8a55ccbc64789fcbd03","604016aa51301a1e54c91c67","6041a479dc31951b9481d170","","{""follow-up_anecdote_positive_high_rating_similarity-rating"":""7"",""follow-up_anecdote_positive_high_rating_relevance-specific-rating"":""7"",""follow-up_anecdote_positive_high_rating_relevance-general-rating"":""6"",""follow-up_anecdote_positive_high_text_justify"":""They were similar and there was compelling information available that covered enough variables to sufficiently back the logic behind investing.""}","","",""
"[{""page_index"":0,""viewing_time"":49669.54500001157},{""page_index"":1,""viewing_time"":5499.449999988428}]","55169.645000001765","debrief","instructions","22","983209","0.0-0.0-3.0-0.0","7t1r4b6doyp05nb","anecdotes","experiment2","prolific","3","2","combined","6","6010d8a55ccbc64789fcbd03","604016aa51301a1e54c91c67","6041a479dc31951b9481d170","","","","",""
"","9603.5600000032","end","html-button-response","23","992814","0.0-0.0-3.0-1.0","7t1r4b6doyp05nb","anecdotes","experiment2","prolific","3","2","combined","6","6010d8a55ccbc64789fcbd03","604016aa51301a1e54c91c67","6041a479dc31951b9481d170","","","","<div>
  <p>Press below to complete the experiment.</p>
  <p>The next page will be a blank white screen. It will take approximately 10 seconds to save your data, after which you will be automatically redirected back to Prolific. Please do not exit until you have been redirected back to Prolific.</p>
  <p>Thank you!</p>
</div>","0"
