"view_history","rt","stage","trial_type","trial_index","time_elapsed","internal_node_id","subject","thesis_project","experiment","sample","project_variation","anecdote_variation","anecdote_between","current_project_display_order","PROLIFIC_PID","STUDY_ID","SESSION_ID","url","responses","current_response","stimulus","button_pressed"
"[{""page_index"":0,""viewing_time"":4901.039999999739}]","4901.495000000068","welcome","instructions","0","4906","0.0-0.0-0.0","9wp4ww6wr1v053y","anecdotes","experiment2","prolific","1","2","anecdote_only","6","573a8aca67421f000f191c52","604016aa51301a1e54c91c67","6041a23ee2cca119e8146772","","","","",""
"[{""page_index"":0,""viewing_time"":12140.430000000379},{""page_index"":1,""viewing_time"":3587.814999999864},{""page_index"":2,""viewing_time"":3197.9099999998652}]","18926.339999999982","pis","instructions","1","23833","0.0-0.0-1.0-0.0","9wp4ww6wr1v053y","anecdotes","experiment2","prolific","1","2","anecdote_only","6","573a8aca67421f000f191c52","604016aa51301a1e54c91c67","6041a23ee2cca119e8146772","","","","",""
"","8859.54000000038","consent","external-html","2","33403","0.0-0.0-1.0-1.0","9wp4ww6wr1v053y","anecdotes","experiment2","prolific","1","2","anecdote_only","6","573a8aca67421f000f191c52","604016aa51301a1e54c91c67","6041a23ee2cca119e8146772","resource/other/consent.html","","","",""
"","1967.4949999998717","id","survey-html-form","3","35372","0.0-0.0-1.0-2.0","9wp4ww6wr1v053y","anecdotes","experiment2","prolific","1","2","anecdote_only","6","573a8aca67421f000f191c52","604016aa51301a1e54c91c67","6041a23ee2cca119e8146772","","{""prolific"":""573a8aca67421f000f191c52""}","","",""
"","4678.305000000364","contact","survey-html-form","4","40051","0.0-0.0-1.0-3.0","9wp4ww6wr1v053y","anecdotes","experiment2","prolific","1","2","anecdote_only","6","573a8aca67421f000f191c52","604016aa51301a1e54c91c67","6041a23ee2cca119e8146772","","{""contact"":""no"",""address"":""""}","","",""
"","33225.91000000012","demographics","survey-html-form","5","73280","0.0-0.0-1.0-4.0","9wp4ww6wr1v053y","anecdotes","experiment2","prolific","1","2","anecdote_only","6","573a8aca67421f000f191c52","604016aa51301a1e54c91c67","6041a23ee2cca119e8146772","","{""sex"":""female"",""age"":""42"",""language"":""No"",""language_other"":"""",""business_edu"":""4"",""business_exp"":""15"",""current"":""no""}","no","",""
"","51661.204999999434","instructions","survey-html-form","6","124944","0.0-0.0-2.0-0.0-0.0","9wp4ww6wr1v053y","anecdotes","experiment2","prolific","1","2","anecdote_only","6","573a8aca67421f000f191c52","604016aa51301a1e54c91c67","6041a23ee2cca119e8146772","","{""instructions_test"":""2""}","","",""
"","18675.17000000042","interstitial","survey-html-form","7","143622","0.0-0.0-2.0-3.0-0.0-0.0-0.0-0.0-0.0","9wp4ww6wr1v053y","anecdotes","experiment2","prolific","1","2","anecdote_only","6","573a8aca67421f000f191c52","604016aa51301a1e54c91c67","6041a23ee2cca119e8146772","","{""interstitial_5"":""on""}","","",""
"","NaN","project_allocation","survey-html-form3","8","174502","0.0-0.0-2.0-3.0-0.0-0.0-0.0-0.0-1.0","9wp4ww6wr1v053y","anecdotes","experiment2","prolific","1","2","anecdote_only","6","573a8aca67421f000f191c52","604016aa51301a1e54c91c67","6041a23ee2cca119e8146772","","{""statistics-only_NA_NA_Pressbloom_national-newspaper_903_93_Newspapers-printed_50000_Number-of-weekly-advertisers_80_Ink-that-is-not-discarded-due-to-impurities_5000_Payment-model_advertising_target"":""90"",""statistics-only_NA_NA_Pharmacore_pharmaceutical_104_88_Pills-pressed_300000_Shelf-life_20_Probability-of-symptom-reduction-after-a-week_90_Drug-type_over-the-counter_comparison"":""10""}","","",""
"","1919.9799999996612","follow_up","survey-html-form","9","176423","0.0-0.0-2.0-3.0-0.0-0.0-0.0-0.0-2.0","9wp4ww6wr1v053y","anecdotes","experiment2","prolific","1","2","anecdote_only","6","573a8aca67421f000f191c52","604016aa51301a1e54c91c67","6041a23ee2cca119e8146772","","{}","","",""
"","10206.61000000019","interstitial","survey-html-form","10","186632","0.0-0.0-2.0-3.0-0.0-0.0-0.0-0.1-0.1","9wp4ww6wr1v053y","anecdotes","experiment2","prolific","1","2","anecdote_only","6","573a8aca67421f000f191c52","604016aa51301a1e54c91c67","6041a23ee2cca119e8146772","","{""interstitial_1"":""on""}","","",""
"","NaN","project_allocation","survey-html-form3","11","265571","0.0-0.0-2.0-3.0-0.0-0.0-0.0-0.1-1.1","9wp4ww6wr1v053y","anecdotes","experiment2","prolific","1","2","anecdote_only","6","573a8aca67421f000f191c52","604016aa51301a1e54c91c67","6041a23ee2cca119e8146772","","{""anecdote_high_negative_Dinerly_restaurant-chain_904_94_Restaurants-established_7_Number-of-reservations-on-a-Saturday-night_80_Positive-reviews_32_Restaurant-type_fast-food_target"":""50"",""anecdote_high_negative_Vital-Records_record-label_100_88_Record-projects-completed_6_Radio-listenership-nationally_2_Relevant-network-connections_10_Genre_rock_comparison"":""50""}","","",""
"","28765.42499999958","follow_up","survey-html-form","12","294339","0.0-0.0-2.0-3.0-0.0-0.0-0.0-0.1-2.1","9wp4ww6wr1v053y","anecdotes","experiment2","prolific","1","2","anecdote_only","6","573a8aca67421f000f191c52","604016aa51301a1e54c91c67","6041a23ee2cca119e8146772","","{""follow-up_anecdote_negative_high_rating_similarity-rating"":""5"",""follow-up_anecdote_negative_high_rating_relevance-specific-rating"":""5"",""follow-up_anecdote_negative_high_rating_relevance-general-rating"":""5"",""follow-up_anecdote_negative_high_text_justify"":"".""}","","",""
"","9193.964999999502","interstitial","survey-html-form","13","303535","0.0-0.0-2.0-3.0-0.0-0.0-0.0-0.2-0.2","9wp4ww6wr1v053y","anecdotes","experiment2","prolific","1","2","anecdote_only","6","573a8aca67421f000f191c52","604016aa51301a1e54c91c67","6041a23ee2cca119e8146772","","{""interstitial_4"":""on""}","","",""
"","NaN","project_allocation","survey-html-form3","14","325901","0.0-0.0-2.0-3.0-0.0-0.0-0.0-0.2-1.2","9wp4ww6wr1v053y","anecdotes","experiment2","prolific","1","2","anecdote_only","6","573a8aca67421f000f191c52","604016aa51301a1e54c91c67","6041a23ee2cca119e8146772","","{""anecdote_low_positive_Railmont_railway_104_89_Railway-lines-built_7_Number-of-seats-filled-by-paying-customers-at-peak-hour_2800_Time-before-the-train-carriages-will-need-to-be-serviced_17_Operation-type_intracity_target"":""1"",""anecdote_low_positive_Erectic_high-rise-construction_902_94_High-rises-built_11_Probability-that-the-builders-complete-construction-within-a-month-of-the-due-date_77_Number-of-tenant-expressions-of-interest_140_Primary-use_mixed-office-retail_comparison"":""99""}","","",""
"","11553.689999999711","follow_up","survey-html-form","15","337456","0.0-0.0-2.0-3.0-0.0-0.0-0.0-0.2-2.2","9wp4ww6wr1v053y","anecdotes","experiment2","prolific","1","2","anecdote_only","6","573a8aca67421f000f191c52","604016aa51301a1e54c91c67","6041a23ee2cca119e8146772","","{""follow-up_anecdote_positive_low_rating_similarity-rating"":""1"",""follow-up_anecdote_positive_low_rating_relevance-specific-rating"":""1"",""follow-up_anecdote_positive_low_rating_relevance-general-rating"":""1"",""follow-up_anecdote_positive_low_text_justify"":"".""}","","",""
"","4509.954999999492","interstitial","survey-html-form","16","341968","0.0-0.0-2.0-3.0-0.0-0.0-0.0-0.3-0.3","9wp4ww6wr1v053y","anecdotes","experiment2","prolific","1","2","anecdote_only","6","573a8aca67421f000f191c52","604016aa51301a1e54c91c67","6041a23ee2cca119e8146772","","{""interstitial_3"":""on""}","","",""
"","NaN","project_allocation","survey-html-form3","17","358107","0.0-0.0-2.0-3.0-0.0-0.0-0.0-0.3-1.3","9wp4ww6wr1v053y","anecdotes","experiment2","prolific","1","2","anecdote_only","6","573a8aca67421f000f191c52","604016aa51301a1e54c91c67","6041a23ee2cca119e8146772","","{""anecdote_low_negative_Cweb_software_905_92_Code-written_600_Security-rating_51_Number-of-potential-customers-in-first-year_2_Target-users_enterprise_target"":""10"",""anecdote_low_negative_Refinera_oil-well_102_90_Oil-extracted_1200_Time-the-machinery-lasts-before-requiring-maintenance_4_Probability-of-finding-oil_72_Type-of-well_offshore_comparison"":""90""}","","",""
"","12229.059999999648","follow_up","survey-html-form","18","370338","0.0-0.0-2.0-3.0-0.0-0.0-0.0-0.3-2.3","9wp4ww6wr1v053y","anecdotes","experiment2","prolific","1","2","anecdote_only","6","573a8aca67421f000f191c52","604016aa51301a1e54c91c67","6041a23ee2cca119e8146772","","{""follow-up_anecdote_negative_low_rating_similarity-rating"":""6"",""follow-up_anecdote_negative_low_rating_relevance-specific-rating"":""6"",""follow-up_anecdote_negative_low_rating_relevance-general-rating"":""6"",""follow-up_anecdote_negative_low_text_justify"":"".""}","","",""
"","3607.5550000004587","interstitial","survey-html-form","19","373947","0.0-0.0-2.0-3.0-0.0-0.0-0.0-0.4-0.4","9wp4ww6wr1v053y","anecdotes","experiment2","prolific","1","2","anecdote_only","6","573a8aca67421f000f191c52","604016aa51301a1e54c91c67","6041a23ee2cca119e8146772","","{""interstitial_2"":""on""}","","",""
"","NaN","project_allocation","survey-html-form3","20","385244","0.0-0.0-2.0-3.0-0.0-0.0-0.0-0.4-1.4","9wp4ww6wr1v053y","anecdotes","experiment2","prolific","1","2","anecdote_only","6","573a8aca67421f000f191c52","604016aa51301a1e54c91c67","6041a23ee2cca119e8146772","","{""anecdote_high_positive_Logivia_shipping-logistics_902_94_Packages-shipped_960_Number-of-orders-that-do-not-spend-time-in-a-bottleneck_480_Average-accuracy-of-shipments_94_Shipping-type_parcel_comparison"":""90"",""anecdote_high_positive_Microxy_microchip_103_87_Microchips-produced_4800_Usable-semiconductor-yield-after-testing_63_Compatible-devices-in-the-market_79_Type-of-chip-architecture_Reduced-Instruction-Set-Computing_target"":""10""}","","",""
"","12306.270000000077","follow_up","survey-html-form","21","397552","0.0-0.0-2.0-3.0-0.0-0.0-0.0-0.4-2.4","9wp4ww6wr1v053y","anecdotes","experiment2","prolific","1","2","anecdote_only","6","573a8aca67421f000f191c52","604016aa51301a1e54c91c67","6041a23ee2cca119e8146772","","{""follow-up_anecdote_positive_high_rating_similarity-rating"":""1"",""follow-up_anecdote_positive_high_rating_relevance-specific-rating"":""2"",""follow-up_anecdote_positive_high_rating_relevance-general-rating"":""3"",""follow-up_anecdote_positive_high_text_justify"":"".""}","","",""
"[{""page_index"":0,""viewing_time"":5382.975000000442},{""page_index"":1,""viewing_time"":3535.9200000002747}]","8919.440000000584","debrief","instructions","22","406473","0.0-0.0-3.0-0.0","9wp4ww6wr1v053y","anecdotes","experiment2","prolific","1","2","anecdote_only","6","573a8aca67421f000f191c52","604016aa51301a1e54c91c67","6041a23ee2cca119e8146772","","","","",""
"","8676.980000000156","end","html-button-response","23","415152","0.0-0.0-3.0-1.0","9wp4ww6wr1v053y","anecdotes","experiment2","prolific","1","2","anecdote_only","6","573a8aca67421f000f191c52","604016aa51301a1e54c91c67","6041a23ee2cca119e8146772","","","","<div>
  <p>Press below to complete the experiment.</p>
  <p>The next page will be a blank white screen. It will take approximately 10 seconds to save your data, after which you will be automatically redirected back to Prolific. Please do not exit until you have been redirected back to Prolific.</p>
  <p>Thank you!</p>
</div>","0"
