view_history,rt,stage,trial_type,trial_index,time_elapsed,internal_node_id,subject,thesis_project,experiment,sample,project_variation,anecdote_variation,anecdote_between,current_project_display_order,PROLIFIC_PID,STUDY_ID,SESSION_ID,responses,current_response,dateCreated
"[{""page_index"":0,""viewing_time"":56.1171800000011}]",56.40995299998508,welcome,instructions,0,58,0.0-0.0-0.0,gaew9wbzf3fhykr,anecdotes,experiment2,prolific,3,2,anecdote_only,6,NA,NA,NA,NA,NA,20/01/2021 13:26:05
NA,255.4579110000077,id,survey-html-form,1,316,0.0-0.0-1.0-0.0,gaew9wbzf3fhykr,anecdotes,experiment2,prolific,3,2,anecdote_only,6,NA,NA,NA,"{""prolific"":""test12342517866281376893""}",NA,20/01/2021 13:26:05
NA,438.4112500000015,contact,survey-html-form,2,756,0.0-0.0-1.0-1.0,gaew9wbzf3fhykr,anecdotes,experiment2,prolific,3,2,anecdote_only,6,NA,NA,NA,"{""contact"":""no"",""address"":""test12345355245447658759""}",NA,20/01/2021 13:26:05
NA,1088.1151179999904,demographics,survey-html-form,3,1847,0.0-0.0-1.0-2.0,gaew9wbzf3fhykr,anecdotes,experiment2,prolific,3,2,anecdote_only,6,NA,NA,NA,"{""sex"":""male"",""age"":""27"",""language"":""Chinese"",""language_other"":"""",""business_edu"":""51"",""business_exp"":""4"",""current"":""no""}",no,20/01/2021 13:26:05
NA,272.3103959999944,instructions,survey-html-form,4,2120,0.0-0.0-2.0-0.0-0.0,gaew9wbzf3fhykr,anecdotes,experiment2,prolific,3,2,anecdote_only,6,NA,NA,NA,"{""instructions_test"":""88""}",NA,20/01/2021 13:26:05
NA,208.58489700000882,interstitial,survey-html-form,5,2331,0.0-0.0-2.0-11.0-0.0-0.0-0.0-0.0-0.0,gaew9wbzf3fhykr,anecdotes,experiment2,prolific,3,2,anecdote_only,6,NA,NA,NA,{},NA,20/01/2021 13:26:05
NA,NA,project_allocation,survey-html-form3,6,2573,0.0-0.0-2.0-11.0-0.0-0.0-0.0-0.0-1.0,gaew9wbzf3fhykr,anecdotes,experiment2,prolific,3,2,anecdote_only,6,NA,NA,NA,"{""anecdote_high_negative_Refinera_oil-well_102_90_Oil-extracted_2800_Time-the-machinery-lasts-before-requiring-maintenance_10_Probability-of-finding-oil_84_Type-of-well_offshore_comparison"":""42"",""anecdote_high_negative_Cweb_software_905_92_Code-written_1400_Security-rating_84_Number-of-potential-customers-in-first-year_4_Target-users_enterprise_target"":""58""}",NA,20/01/2021 13:26:05
NA,456.2848770000014,follow_up,survey-html-form,7,3031,0.0-0.0-2.0-11.0-0.0-0.0-0.0-0.0-2.0,gaew9wbzf3fhykr,anecdotes,experiment2,prolific,3,2,anecdote_only,6,NA,NA,NA,"{""follow-up_anecdote_negative_high_rating_similarity-rating"":""2"",""follow-up_anecdote_negative_high_rating_relevance-specific-rating"":""0"",""follow-up_anecdote_negative_high_rating_relevance-general-rating"":""6"",""follow-up_anecdote_negative_high_text_justify"":""""}",NA,20/01/2021 13:26:05
NA,217.24122000000534,interstitial,survey-html-form,8,3249,0.0-0.0-2.0-11.0-0.0-0.0-0.0-0.1-0.1,gaew9wbzf3fhykr,anecdotes,experiment2,prolific,3,2,anecdote_only,6,NA,NA,NA,{},NA,20/01/2021 13:26:05
NA,NA,project_allocation,survey-html-form3,9,3537,0.0-0.0-2.0-11.0-0.0-0.0-0.0-0.1-1.1,gaew9wbzf3fhykr,anecdotes,experiment2,prolific,3,2,anecdote_only,6,NA,NA,NA,"{""anecdote_high_positive_Erectic_high-rise-construction_902_94_High-rises-built_7_Probability-that-the-builders-complete-construction-within-a-month-of-the-due-date_63_Number-of-tenant-expressions-of-interest_90_Primary-use_mixed office-retail_comparison"":""48"",""anecdote_high_positive_Railmont_railway_104_89_Railway-lines-built_4_Number-of-seats-filled-by-paying-customers-at-peak-hour_1800_Time-before-the-train-carriages-will-need-to-be-serviced_11_Operation-type_intracity_target"":""52""}",NA,20/01/2021 13:26:05
NA,360.4710420000006,follow_up,survey-html-form,10,3899,0.0-0.0-2.0-11.0-0.0-0.0-0.0-0.1-2.1,gaew9wbzf3fhykr,anecdotes,experiment2,prolific,3,2,anecdote_only,6,NA,NA,NA,"{""follow-up_anecdote_positive_high_rating_similarity-rating"":""1"",""follow-up_anecdote_positive_high_rating_relevance-specific-rating"":""6"",""follow-up_anecdote_positive_high_rating_relevance-general-rating"":""4"",""follow-up_anecdote_positive_high_text_justify"":""""}",NA,20/01/2021 13:26:05
NA,231.9400659999933,interstitial,survey-html-form,11,4134,0.0-0.0-2.0-11.0-0.0-0.0-0.0-0.2-0.2,gaew9wbzf3fhykr,anecdotes,experiment2,prolific,3,2,anecdote_only,6,NA,NA,NA,{},NA,20/01/2021 13:26:05
NA,NA,project_allocation,survey-html-form3,12,4370,0.0-0.0-2.0-11.0-0.0-0.0-0.0-0.2-1.2,gaew9wbzf3fhykr,anecdotes,experiment2,prolific,3,2,anecdote_only,6,NA,NA,NA,"{""anecdote_low_negative_Logivia_shipping-logistics_103_87_Packages-shipped_560_Number-of-orders-that-do-not-spend-time-in-a-bottleneck_280_Average-accuracy-of-shipments_75_Shipping-type_parcel_comparison"":""50"",""anecdote_low_negative_Microxy_microchip_902_94_Microchips-produced_2800_Usable-semiconductor-yield-after-testing_48_Compatible-devices-in-the-market_60_Type-of-chip-architecture_Reduced Instruction Set Computing_target"":""50""}",NA,20/01/2021 13:26:05
NA,601.2518329999921,follow_up,survey-html-form,13,4973,0.0-0.0-2.0-11.0-0.0-0.0-0.0-0.2-2.2,gaew9wbzf3fhykr,anecdotes,experiment2,prolific,3,2,anecdote_only,6,NA,NA,NA,"{""follow-up_anecdote_negative_low_rating_similarity-rating"":""4"",""follow-up_anecdote_negative_low_rating_relevance-specific-rating"":""3"",""follow-up_anecdote_negative_low_rating_relevance-general-rating"":""1"",""follow-up_anecdote_negative_low_text_justify"":""""}",NA,20/01/2021 13:26:05
NA,189.85203599999113,interstitial,survey-html-form,14,5165,0.0-0.0-2.0-11.0-0.0-0.0-0.0-0.3-0.3,gaew9wbzf3fhykr,anecdotes,experiment2,prolific,3,2,anecdote_only,6,NA,NA,NA,{},NA,20/01/2021 13:26:05
NA,NA,project_allocation,survey-html-form3,15,5385,0.0-0.0-2.0-11.0-0.0-0.0-0.0-0.3-1.3,gaew9wbzf3fhykr,anecdotes,experiment2,prolific,3,2,anecdote_only,6,NA,NA,NA,"{""anecdote_low_positive_Pressbloom_national-newspaper_104_88_Newspapers-printed_80000_Number-of-weekly-advertisers_128_Ink-that-is-not-discarded-due-to-impurities_8000_Payment-model_advertising_target"":""55"",""anecdote_low_positive_Pharmacore_pharmaceutical_903_93_Pills-pressed_480000_Shelf-life_32_Probability-of-symptom-reduction-after-a-week_99_Drug-type_over-the-counter_comparison"":""45""}",NA,20/01/2021 13:26:05
NA,447.9273590000048,follow_up,survey-html-form,16,5835,0.0-0.0-2.0-11.0-0.0-0.0-0.0-0.3-2.3,gaew9wbzf3fhykr,anecdotes,experiment2,prolific,3,2,anecdote_only,6,NA,NA,NA,"{""follow-up_anecdote_positive_low_rating_similarity-rating"":""1"",""follow-up_anecdote_positive_low_rating_relevance-specific-rating"":""4"",""follow-up_anecdote_positive_low_rating_relevance-general-rating"":""5"",""follow-up_anecdote_positive_low_text_justify"":""""}",NA,20/01/2021 13:26:05
NA,176.0810320000137,interstitial,survey-html-form,17,6013,0.0-0.0-2.0-11.0-0.0-0.0-0.0-0.4-0.4,gaew9wbzf3fhykr,anecdotes,experiment2,prolific,3,2,anecdote_only,6,NA,NA,NA,{},NA,20/01/2021 13:26:05
NA,NA,project_allocation,survey-html-form3,18,6252,0.0-0.0-2.0-11.0-0.0-0.0-0.0-0.4-1.4,gaew9wbzf3fhykr,anecdotes,experiment2,prolific,3,2,anecdote_only,6,NA,NA,NA,"{""statistics-only_NA_NA_Dinerly_restaurant-chain_904_94_Restaurants-established_9_Number-of-reservations-on-a-Saturday-night_100_Positive-reviews_40_Restaurant-type_fast food_target"":""54"",""statistics-only_NA_NA_Vital-Records_record-label_100_88_Record-projects-completed_8_Radio-listenership-nationally_2_Relevant-network-connections_13_Genre_rock_comparison"":""46""}",NA,20/01/2021 13:26:05
NA,160.56239200000255,follow_up,survey-html-form,19,6414,0.0-0.0-2.0-11.0-0.0-0.0-0.0-0.4-2.4,gaew9wbzf3fhykr,anecdotes,experiment2,prolific,3,2,anecdote_only,6,NA,NA,NA,{},NA,20/01/2021 13:26:05
"[{""page_index"":0,""viewing_time"":105.55707899999379},{""page_index"":1,""viewing_time"":88.13541600000008}]",194.05480000000352,debrief,instructions,20,6609,0.0-0.0-3.0-0.0,gaew9wbzf3fhykr,anecdotes,experiment2,prolific,3,2,anecdote_only,6,NA,NA,NA,NA,NA,20/01/2021 13:26:05
