view_history,rt,stage,trial_type,trial_index,time_elapsed,internal_node_id,subject,thesis_project,experiment,sample,project_variation,anecdote_variation,anecdote_between,current_project_display_order,PROLIFIC_PID,STUDY_ID,SESSION_ID,responses,current_response,dateCreated
"[{""page_index"":0,""viewing_time"":53.302278000000314}]",53.67753900000238,welcome,instructions,0,55,0.0-0.0-0.0,10djw7lfee3q80w,anecdotes,experiment2,prolific,3,2,anecdote_only,6,NA,NA,NA,NA,NA,13/01/2021 14:52:53
NA,283.99100300000055,id,survey-html-form,1,341,0.0-0.0-1.0-0.0,10djw7lfee3q80w,anecdotes,experiment2,prolific,3,2,anecdote_only,6,NA,NA,NA,"{""prolific"":""test12344913897379174317""}",NA,13/01/2021 14:52:53
NA,455.64414600000094,contact,survey-html-form,2,798,0.0-0.0-1.0-1.0,10djw7lfee3q80w,anecdotes,experiment2,prolific,3,2,anecdote_only,6,NA,NA,NA,"{""contact"":""no"",""address"":""test12348724815599867364""}",NA,13/01/2021 14:52:53
NA,1107.2329019999997,demographics,survey-html-form,3,1908,0.0-0.0-1.0-2.0,10djw7lfee3q80w,anecdotes,experiment2,prolific,3,2,anecdote_only,6,NA,NA,NA,"{""sex"":""female"",""age"":""57"",""language"":""Chinese"",""language_other"":"""",""business_edu"":""1"",""business_exp"":""52"",""current"":""yes""}",yes,13/01/2021 14:52:53
NA,2096.6282410000013,business_information,survey-html-form,4,4009,0.0-0.0-1.0-3.0-0.0,10djw7lfee3q80w,anecdotes,experiment2,prolific,3,2,anecdote_only,6,NA,NA,NA,"{""company_name"":""test12349499727971995668"",""sector"":""Other"",""sector_other"":""test12349499727971995668"",""employees"":""377292"",""revenue"":""225760"",""role_company"":""CEO"",""role_company_other"":"""",""role_allocation"":"""",""role_allocation_other"":"""",""budget"":""58892""}",NA,13/01/2021 14:52:53
NA,322.24622800000043,instructions,survey-html-form,5,4333,0.0-0.0-2.0-0.0-0.0,10djw7lfee3q80w,anecdotes,experiment2,prolific,3,2,anecdote_only,6,NA,NA,NA,"{""instructions_test"":""87""}",NA,13/01/2021 14:52:53
NA,183.53823799999645,interstitial,survey-html-form,6,4519,0.0-0.0-2.0-11.0-0.0-0.0-0.0-0.0-0.0,10djw7lfee3q80w,anecdotes,experiment2,prolific,3,2,anecdote_only,6,NA,NA,NA,{},NA,13/01/2021 14:52:53
NA,NA,project_allocation,survey-html-form3,7,4882,0.0-0.0-2.0-11.0-0.0-0.0-0.0-0.0-1.0,10djw7lfee3q80w,anecdotes,experiment2,prolific,3,2,anecdote_only,6,NA,NA,NA,"{""anecdote_high_negative_Refinera_oil-well_102_90_Oil-extracted_2800_Time-the-machinery-lasts-before-requiring-maintenance_10_Probability-of-finding-oil_84_Type-of-well_offshore_comparison"":""56"",""anecdote_high_negative_Cweb_software_905_92_Code-written_1400_Security-rating_84_Number-of-potential-customers-in-first-year_4_Target-users_enterprise_target"":""44""}",NA,13/01/2021 14:52:53
NA,475.65259499999956,follow_up,survey-html-form,8,5360,0.0-0.0-2.0-11.0-0.0-0.0-0.0-0.0-2.0,10djw7lfee3q80w,anecdotes,experiment2,prolific,3,2,anecdote_only,6,NA,NA,NA,"{""follow-up_anecdote_negative_high_rating_similarity"":""5"",""follow-up_anecdote_negative_high_rating_relevance-specific"":""4"",""follow-up_anecdote_negative_high_rating_relevance-general"":""4"",""follow-up_anecdote_negative_high_text_justify"":""""}",NA,13/01/2021 14:52:53
NA,175.04844500000127,interstitial,survey-html-form,9,5537,0.0-0.0-2.0-11.0-0.0-0.0-0.0-0.1-0.1,10djw7lfee3q80w,anecdotes,experiment2,prolific,3,2,anecdote_only,6,NA,NA,NA,{},NA,13/01/2021 14:52:53
NA,NA,project_allocation,survey-html-form3,10,5820,0.0-0.0-2.0-11.0-0.0-0.0-0.0-0.1-1.1,10djw7lfee3q80w,anecdotes,experiment2,prolific,3,2,anecdote_only,6,NA,NA,NA,"{""anecdote_high_positive_Erectic_high-rise-construction_902_94_High-rises-built_7_Probability-that-the-builders-complete-construction-within-a-month-of-the-due-date_63_Number-of-tenant-expressions-of-interest_90_Primary-use_mixed office-retail_comparison"":""54"",""anecdote_high_positive_Railmont_railway_104_89_Railway-lines-built_4_Number-of-seats-filled-by-paying-customers-at-peak-hour_1800_Time-before-the-train-carriages-will-need-to-be-serviced_11_Operation-type_intracity_target"":""46""}",NA,13/01/2021 14:52:53
NA,495.666166,follow_up,survey-html-form,11,6318,0.0-0.0-2.0-11.0-0.0-0.0-0.0-0.1-2.1,10djw7lfee3q80w,anecdotes,experiment2,prolific,3,2,anecdote_only,6,NA,NA,NA,"{""follow-up_anecdote_positive_high_rating_similarity"":""2"",""follow-up_anecdote_positive_high_rating_relevance-specific"":""4"",""follow-up_anecdote_positive_high_rating_relevance-general"":""1"",""follow-up_anecdote_positive_high_text_justify"":""""}",NA,13/01/2021 14:52:53
NA,163.98997600000348,interstitial,survey-html-form,12,6484,0.0-0.0-2.0-11.0-0.0-0.0-0.0-0.2-0.2,10djw7lfee3q80w,anecdotes,experiment2,prolific,3,2,anecdote_only,6,NA,NA,NA,{},NA,13/01/2021 14:52:53
NA,NA,project_allocation,survey-html-form3,13,6812,0.0-0.0-2.0-11.0-0.0-0.0-0.0-0.2-1.2,10djw7lfee3q80w,anecdotes,experiment2,prolific,3,2,anecdote_only,6,NA,NA,NA,"{""anecdote_low_negative_Microxy_microchip_902_94_Microchips-produced_2800_Usable-semiconductor-yield-after-testing_48_Compatible-devices-in-the-market_60_Type-of-chip-architecture_Reduced Instruction Set Computing_target"":""67"",""anecdote_low_negative_Logivia_shipping-logistics_103_87_Packages-shipped_560_Number-of-orders-that-do-not-spend-time-in-a-bottleneck_280_Average-accuracy-of-shipments_75_Shipping-type_parcel_comparison"":""33""}",NA,13/01/2021 14:52:53
NA,458.2334080000055,follow_up,survey-html-form,14,7272,0.0-0.0-2.0-11.0-0.0-0.0-0.0-0.2-2.2,10djw7lfee3q80w,anecdotes,experiment2,prolific,3,2,anecdote_only,6,NA,NA,NA,"{""follow-up_anecdote_negative_low_rating_similarity"":""5"",""follow-up_anecdote_negative_low_rating_relevance-specific"":""3"",""follow-up_anecdote_negative_low_rating_relevance-general"":""3"",""follow-up_anecdote_negative_low_text_justify"":""""}",NA,13/01/2021 14:52:53
NA,257.8419920000033,interstitial,survey-html-form,15,7533,0.0-0.0-2.0-11.0-0.0-0.0-0.0-0.3-0.3,10djw7lfee3q80w,anecdotes,experiment2,prolific,3,2,anecdote_only,6,NA,NA,NA,{},NA,13/01/2021 14:52:53
NA,NA,project_allocation,survey-html-form3,16,7822,0.0-0.0-2.0-11.0-0.0-0.0-0.0-0.3-1.3,10djw7lfee3q80w,anecdotes,experiment2,prolific,3,2,anecdote_only,6,NA,NA,NA,"{""anecdote_low_positive_Pressbloom_national-newspaper_104_88_Newspapers-printed_80000_Number-of-weekly-advertisers_128_Ink-that-is-not-discarded-due-to-impurities_8000_Payment-model_advertising_target"":""57"",""anecdote_low_positive_Pharmacore_pharmaceutical_903_93_Pills-pressed_480000_Shelf-life_32_Probability-of-symptom-reduction-after-a-week_99_Drug-type_over-the-counter_comparison"":""43""}",NA,13/01/2021 14:52:53
NA,427.4332379999996,follow_up,survey-html-form,17,8252,0.0-0.0-2.0-11.0-0.0-0.0-0.0-0.3-2.3,10djw7lfee3q80w,anecdotes,experiment2,prolific,3,2,anecdote_only,6,NA,NA,NA,"{""follow-up_anecdote_positive_low_rating_similarity"":""3"",""follow-up_anecdote_positive_low_rating_relevance-specific"":""0"",""follow-up_anecdote_positive_low_rating_relevance-general"":""3"",""follow-up_anecdote_positive_low_text_justify"":""""}",NA,13/01/2021 14:52:53
NA,175.1225940000004,interstitial,survey-html-form,18,8429,0.0-0.0-2.0-11.0-0.0-0.0-0.0-0.4-0.4,10djw7lfee3q80w,anecdotes,experiment2,prolific,3,2,anecdote_only,6,NA,NA,NA,{},NA,13/01/2021 14:52:53
NA,NA,project_allocation,survey-html-form3,19,8793,0.0-0.0-2.0-11.0-0.0-0.0-0.0-0.4-1.4,10djw7lfee3q80w,anecdotes,experiment2,prolific,3,2,anecdote_only,6,NA,NA,NA,"{""statistics-only_NA_NA_Dinerly_restaurant-chain_904_94_Restaurants-established_9_Number-of-reservations-on-a-Saturday-night_100_Positive-reviews_40_Restaurant-type_fast food_target"":""52"",""statistics-only_NA_NA_Vital-Records_record-label_100_88_Record-projects-completed_8_Radio-listenership-nationally_2_Relevant-network-connections_13_Genre_rock_comparison"":""48""}",NA,13/01/2021 14:52:53
NA,179.31421800000135,follow_up,survey-html-form,20,8974,0.0-0.0-2.0-11.0-0.0-0.0-0.0-0.4-2.4,10djw7lfee3q80w,anecdotes,experiment2,prolific,3,2,anecdote_only,6,NA,NA,NA,{},NA,13/01/2021 14:52:53
"[{""page_index"":0,""viewing_time"":80.01934500000425},{""page_index"":1,""viewing_time"":80.22066499999892}]",160.52491300000293,debrief,instructions,21,9136,0.0-0.0-3.0-0.0,10djw7lfee3q80w,anecdotes,experiment2,prolific,3,2,anecdote_only,6,NA,NA,NA,NA,NA,13/01/2021 14:52:53
