view_history,rt,stage,trial_type,trial_index,time_elapsed,internal_node_id,subject,thesis_project,experiment,sample,project_variation,anecdote_variation,anecdote_between,current_project_display_order,PROLIFIC_PID,STUDY_ID,SESSION_ID,responses,current_response,dateCreated
"[{""page_index"":0,""viewing_time"":34.59816099999102}]",34.78827600000045,welcome,instructions,0,35,0.0-0.0-0.0,sm09l2zx4v8yjn8,anecdotes,experiment2,prolific,3,1,combined,6,NA,NA,NA,NA,NA,03/03/2021 14:31:59
NA,229.45570999999632,id,survey-html-form,1,266,0.0-0.0-1.0-0.0,sm09l2zx4v8yjn8,anecdotes,experiment2,prolific,3,1,combined,6,NA,NA,NA,"{""prolific"":""test12342537617773996564""}",NA,03/03/2021 14:31:59
NA,298.68239799999685,contact,survey-html-form,2,565,0.0-0.0-1.0-1.0,sm09l2zx4v8yjn8,anecdotes,experiment2,prolific,3,1,combined,6,NA,NA,NA,"{""contact"":""no"",""address"":""test12342946541437938895""}",NA,03/03/2021 14:31:59
NA,703.468688000001,demographics,survey-html-form,3,1270,0.0-0.0-1.0-2.0,sm09l2zx4v8yjn8,anecdotes,experiment2,prolific,3,1,combined,6,NA,NA,NA,"{""sex"":""female"",""age"":""93"",""language"":""Hebrew"",""language_other"":"""",""business_edu"":""27"",""business_exp"":""10"",""current"":""yes""}",yes,03/03/2021 14:31:59
NA,1369.2596960000005,business_information,survey-html-form,4,2642,0.0-0.0-1.0-3.0-0.0,sm09l2zx4v8yjn8,anecdotes,experiment2,prolific,3,1,combined,6,NA,NA,NA,"{""company_name"":""test12341486929521545616"",""sector"":""Retail, Wholesale, Restaurants"",""sector_other"":"""",""employees"":""170050"",""revenue"":""194464"",""role_company"":""CEO"",""role_company_other"":"""",""role_allocation"":""Decide on allocations for business unit or division"",""role_allocation_other"":"""",""budget"":""51055""}",NA,03/03/2021 14:31:59
NA,232.2516459999947,instructions,survey-html-form,5,2876,0.0-0.0-2.0-0.0-0.0,sm09l2zx4v8yjn8,anecdotes,experiment2,prolific,3,1,combined,6,NA,NA,NA,"{""instructions_test"":""39""}",NA,03/03/2021 14:31:59
NA,126.59367399999155,interstitial,survey-html-form,6,3004,0.0-0.0-2.0-10.0-0.0-0.0-0.0-0.0-0.0,sm09l2zx4v8yjn8,anecdotes,experiment2,prolific,3,1,combined,6,NA,NA,NA,{},NA,03/03/2021 14:31:59
NA,NA,project_allocation,survey-html-form3,7,3498,0.0-0.0-2.0-10.0-0.0-0.0-0.0-0.0-1.0,sm09l2zx4v8yjn8,anecdotes,experiment2,prolific,3,1,combined,6,NA,NA,NA,"{""anecdote_high_negative_Codeck_software_901_91_Code-written_1000_Security-rating_85_Number-of-potential-customers-in-first-year_3_Target-users_enterprise_target"":""49"",""anecdote_high_negative_Enfuel_oil-well_100_90_Oil-extracted_2000_Time-the-machinery-lasts-before-requiring-maintenance_7_Probability-of-finding-oil_80_Type-of-well_offshore_comparison"":""51""}",NA,03/03/2021 14:31:59
NA,390.13559299999633,follow_up,survey-html-form,8,3889,0.0-0.0-2.0-10.0-0.0-0.0-0.0-0.0-2.0,sm09l2zx4v8yjn8,anecdotes,experiment2,prolific,3,1,combined,6,NA,NA,NA,"{""follow-up_anecdote_negative_high_rating_similarity-rating"":""1"",""follow-up_anecdote_negative_high_rating_relevance-specific-rating"":""4"",""follow-up_anecdote_negative_high_rating_relevance-general-rating"":""7"",""follow-up_anecdote_negative_high_text_justify"":""""}",NA,03/03/2021 14:31:59
NA,186.7666380000087,interstitial,survey-html-form,9,4077,0.0-0.0-2.0-10.0-0.0-0.0-0.0-0.1-0.1,sm09l2zx4v8yjn8,anecdotes,experiment2,prolific,3,1,combined,6,NA,NA,NA,{},NA,03/03/2021 14:31:59
NA,NA,project_allocation,survey-html-form3,10,4379,0.0-0.0-2.0-10.0-0.0-0.0-0.0-0.1-1.1,sm09l2zx4v8yjn8,anecdotes,experiment2,prolific,3,1,combined,6,NA,NA,NA,"{""anecdote_high_positive_Refit_high-rise-construction_900_95_High-rises-built_8_Probability-that-the-builders-complete-construction-within-a-month-of-the-due-date_70_Number-of-tenant-expressions-of-interest_100_Primary-use_mixed-office-retail_comparison"":""54"",""anecdote_high_positive_Rural-Pass_railway_102_87_Railway-lines-built_5_Number-of-seats-filled-by-paying-customers-at-peak-hour_2000_Time-before-the-train-carriages-will-need-to-be-serviced_12_Operation-type_intracity_target"":""46""}",NA,03/03/2021 14:31:59
NA,752.674223,follow_up,survey-html-form,11,5134,0.0-0.0-2.0-10.0-0.0-0.0-0.0-0.1-2.1,sm09l2zx4v8yjn8,anecdotes,experiment2,prolific,3,1,combined,6,NA,NA,NA,"{""follow-up_anecdote_positive_high_rating_similarity-rating"":""7"",""follow-up_anecdote_positive_high_rating_relevance-specific-rating"":""6"",""follow-up_anecdote_positive_high_rating_relevance-general-rating"":""4"",""follow-up_anecdote_positive_high_text_justify"":""""}",NA,03/03/2021 14:31:59
NA,179.11677799999325,interstitial,survey-html-form,12,5314,0.0-0.0-2.0-10.0-0.0-0.0-0.0-0.2-0.2,sm09l2zx4v8yjn8,anecdotes,experiment2,prolific,3,1,combined,6,NA,NA,NA,{},NA,03/03/2021 14:31:59
NA,NA,project_allocation,survey-html-form3,13,5587,0.0-0.0-2.0-10.0-0.0-0.0-0.0-0.2-1.2,sm09l2zx4v8yjn8,anecdotes,experiment2,prolific,3,1,combined,6,NA,NA,NA,"{""anecdote_low_negative_Solgistics_shipping-logistics_105_90_Packages-shipped_800_Number-of-orders-that-do-not-spend-time-in-a-bottleneck_400_Average-accuracy-of-shipments_90_Shipping-type_freight_comparison"":""51"",""anecdote_low_negative_Altchip_microchip_905_93_Microchips-produced_4000_Usable-semiconductor-yield-after-testing_60_Compatible-devices-in-the-market_75_Type-of-chip-architecture_Complex-Instruction-Set-Computing_target"":""49""}",NA,03/03/2021 14:31:59
NA,811.7742929999995,follow_up,survey-html-form,14,6401,0.0-0.0-2.0-10.0-0.0-0.0-0.0-0.2-2.2,sm09l2zx4v8yjn8,anecdotes,experiment2,prolific,3,1,combined,6,NA,NA,NA,"{""follow-up_anecdote_negative_low_rating_similarity-rating"":""1"",""follow-up_anecdote_negative_low_rating_relevance-specific-rating"":""2"",""follow-up_anecdote_negative_low_rating_relevance-general-rating"":""2"",""follow-up_anecdote_negative_low_text_justify"":""""}",NA,03/03/2021 14:31:59
NA,144.5595200000016,interstitial,survey-html-form,15,6547,0.0-0.0-2.0-10.0-0.0-0.0-0.0-0.3-0.3,sm09l2zx4v8yjn8,anecdotes,experiment2,prolific,3,1,combined,6,NA,NA,NA,{},NA,03/03/2021 14:31:59
NA,NA,project_allocation,survey-html-form3,16,6737,0.0-0.0-2.0-10.0-0.0-0.0-0.0-0.3-1.3,sm09l2zx4v8yjn8,anecdotes,experiment2,prolific,3,1,combined,6,NA,NA,NA,"{""anecdote_low_positive_Healthgenic_pharmaceutical_904_95_Pills-pressed_300000_Shelf-life_20_Probability-of-symptom-reduction-after-a-week_90_Drug-type_prescription-only_comparison"":""51"",""anecdote_low_positive_Grown-Media_national-newspaper_102_90_Newspapers-printed_50000_Number-of-weekly-advertisers_80_Ink-that-is-not-discarded-due-to-impurities_5000_Payment-model_subscription_target"":""49""}",NA,03/03/2021 14:31:59
NA,302.11725799999476,follow_up,survey-html-form,17,7041,0.0-0.0-2.0-10.0-0.0-0.0-0.0-0.3-2.3,sm09l2zx4v8yjn8,anecdotes,experiment2,prolific,3,1,combined,6,NA,NA,NA,"{""follow-up_anecdote_positive_low_rating_similarity-rating"":""7"",""follow-up_anecdote_positive_low_rating_relevance-specific-rating"":""5"",""follow-up_anecdote_positive_low_rating_relevance-general-rating"":""5"",""follow-up_anecdote_positive_low_text_justify"":""""}",NA,03/03/2021 14:31:59
NA,122.2681720000055,interstitial,survey-html-form,18,7164,0.0-0.0-2.0-10.0-0.0-0.0-0.0-0.4-0.4,sm09l2zx4v8yjn8,anecdotes,experiment2,prolific,3,1,combined,6,NA,NA,NA,{},NA,03/03/2021 14:31:59
NA,NA,project_allocation,survey-html-form3,19,7345,0.0-0.0-2.0-10.0-0.0-0.0-0.0-0.4-1.4,sm09l2zx4v8yjn8,anecdotes,experiment2,prolific,3,1,combined,6,NA,NA,NA,"{""statistics-only_NA_NA_Poppin_record-label_102_86_Record-projects-completed_8_Radio-listenership-nationally_2_Relevant-network-connections_13_Genre_pop_comparison"":""59"",""statistics-only_NA_NA_Savoro_restaurant-chain_903_93_Restaurants-established_9_Number-of-reservations-on-a-Saturday-night_100_Positive-reviews_40_Restaurant-type_casual-sit-down-dining_target"":""41""}",NA,03/03/2021 14:31:59
NA,117.23123599999508,follow_up,survey-html-form,20,7462,0.0-0.0-2.0-10.0-0.0-0.0-0.0-0.4-2.4,sm09l2zx4v8yjn8,anecdotes,experiment2,prolific,3,1,combined,6,NA,NA,NA,{},NA,03/03/2021 14:31:59
"[{""page_index"":0,""viewing_time"":104.00582900000245},{""page_index"":1,""viewing_time"":55.10521499999686}]",159.42182899999625,debrief,instructions,21,7622,0.0-0.0-3.0-0.0,sm09l2zx4v8yjn8,anecdotes,experiment2,prolific,3,1,combined,6,NA,NA,NA,NA,NA,03/03/2021 14:31:59
