view_history,rt,stage,trial_type,trial_index,time_elapsed,internal_node_id,subject,thesis_project,experiment,sample,project_variation,anecdote_variation,anecdote_between,current_project_display_order,PROLIFIC_PID,STUDY_ID,SESSION_ID,responses,current_response,dateCreated
"[{""page_index"":0,""viewing_time"":375.6192440000002}]",376.80677200000014,welcome,instructions,0,380,0.0-0.0-0.0,mhqrfk5rueszjz7,anecdotes,experiment2,prolific,2,2,combined,6,NA,NA,NA,NA,NA,14/01/2021 12:27:10
NA,494.3407360000002,id,survey-html-form,1,885,0.0-0.0-1.0-0.0,mhqrfk5rueszjz7,anecdotes,experiment2,prolific,2,2,combined,6,NA,NA,NA,"{""prolific"":""test12343617938765658783""}",NA,14/01/2021 12:27:10
NA,638.4255840000001,contact,survey-html-form,2,1526,0.0-0.0-1.0-1.0,mhqrfk5rueszjz7,anecdotes,experiment2,prolific,2,2,combined,6,NA,NA,NA,"{""contact"":""yes"",""address"":""test12344418913631575719""}",NA,14/01/2021 12:27:10
NA,1375.7723349999997,demographics,survey-html-form,3,2914,0.0-0.0-1.0-2.0,mhqrfk5rueszjz7,anecdotes,experiment2,prolific,2,2,combined,6,NA,NA,NA,"{""sex"":""female"",""age"":""53"",""language"":""Greek"",""language_other"":"""",""business_edu"":""91"",""business_exp"":""82"",""current"":""yes""}",yes,14/01/2021 12:27:10
NA,2405.2621169999998,business_information,survey-html-form,4,5325,0.0-0.0-1.0-3.0-0.0,mhqrfk5rueszjz7,anecdotes,experiment2,prolific,2,2,combined,6,NA,NA,NA,"{""company_name"":""test12343393736256771646"",""sector"":""Agriculture, Farming, Food Processing"",""sector_other"":"""",""employees"":""1039981"",""revenue"":""75864"",""role_company"":""EVP"",""role_company_other"":"""",""role_allocation"":""Decide on allocations for business unit or division"",""role_allocation_other"":"""",""budget"":""4361""}",NA,14/01/2021 12:27:10
NA,338.31220399999893,instructions,survey-html-form,5,5665,0.0-0.0-2.0-0.0-0.0,mhqrfk5rueszjz7,anecdotes,experiment2,prolific,2,2,combined,6,NA,NA,NA,"{""instructions_test"":""73""}",NA,14/01/2021 12:27:10
NA,217.9721300000001,interstitial,survey-html-form,6,5886,0.0-0.0-2.0-8.0-0.0-0.0-0.0-0.0-0.0,mhqrfk5rueszjz7,anecdotes,experiment2,prolific,2,2,combined,6,NA,NA,NA,{},NA,14/01/2021 12:27:10
NA,NA,project_allocation,survey-html-form3,7,6281,0.0-0.0-2.0-8.0-0.0-0.0-0.0-0.0-1.0,mhqrfk5rueszjz7,anecdotes,experiment2,prolific,2,2,combined,6,NA,NA,NA,"{""anecdote_high_negative_Logivia_shipping-logistics_105_90_Packages-shipped_1120_Number-of-orders-that-do-not-spend-time-in-a-bottleneck_560_Average-accuracy-of-shipments_99_Shipping-type_parcel_comparison"":""41"",""anecdote_high_negative_Microxy_microchip_905_93_Microchips-produced_5600_Usable-semiconductor-yield-after-testing_63_Compatible-devices-in-the-market_79_Type-of-chip-architecture_Reduced Instruction Set Computing_target"":""59""}",NA,14/01/2021 12:27:10
NA,544.5216809999993,follow_up,survey-html-form,8,6828,0.0-0.0-2.0-8.0-0.0-0.0-0.0-0.0-2.0,mhqrfk5rueszjz7,anecdotes,experiment2,prolific,2,2,combined,6,NA,NA,NA,"{""follow-up_anecdote_negative_high_rating_similarity"":""2"",""follow-up_anecdote_negative_high_rating_relevance-specific"":""6"",""follow-up_anecdote_negative_high_rating_relevance-general"":""5"",""follow-up_anecdote_negative_high_text_justify"":""""}",NA,14/01/2021 12:27:10
NA,188.706819,interstitial,survey-html-form,9,7019,0.0-0.0-2.0-8.0-0.0-0.0-0.0-0.1-0.1,mhqrfk5rueszjz7,anecdotes,experiment2,prolific,2,2,combined,6,NA,NA,NA,{},NA,14/01/2021 12:27:10
NA,NA,project_allocation,survey-html-form3,10,7359,0.0-0.0-2.0-8.0-0.0-0.0-0.0-0.1-1.1,mhqrfk5rueszjz7,anecdotes,experiment2,prolific,2,2,combined,6,NA,NA,NA,"{""anecdote_high_positive_Cweb_software_100_90_Code-written_900_Security-rating_54_Number-of-potential-customers-in-first-year_3_Target-users_enterprise_target"":""46"",""anecdote_high_positive_Refinera_oil-well_901_91_Oil-extracted_1800_Time-the-machinery-lasts-before-requiring-maintenance_6_Probability-of-finding-oil_72_Type-of-well_offshore_comparison"":""54""}",NA,14/01/2021 12:27:10
NA,764.3818990000009,follow_up,survey-html-form,11,8127,0.0-0.0-2.0-8.0-0.0-0.0-0.0-0.1-2.1,mhqrfk5rueszjz7,anecdotes,experiment2,prolific,2,2,combined,6,NA,NA,NA,"{""follow-up_anecdote_positive_high_rating_similarity"":""5"",""follow-up_anecdote_positive_high_rating_relevance-specific"":""0"",""follow-up_anecdote_positive_high_rating_relevance-general"":""0"",""follow-up_anecdote_positive_high_text_justify"":""""}",NA,14/01/2021 12:27:10
NA,241.7656909999987,interstitial,survey-html-form,12,8371,0.0-0.0-2.0-8.0-0.0-0.0-0.0-0.2-0.2,mhqrfk5rueszjz7,anecdotes,experiment2,prolific,2,2,combined,6,NA,NA,NA,{},NA,14/01/2021 12:27:10
NA,NA,project_allocation,survey-html-form3,13,8959,0.0-0.0-2.0-8.0-0.0-0.0-0.0-0.2-1.2,mhqrfk5rueszjz7,anecdotes,experiment2,prolific,2,2,combined,6,NA,NA,NA,"{""anecdote_low_negative_Pressbloom_national-newspaper_904_95_Newspapers-printed_35000_Number-of-weekly-advertisers_56_Ink-that-is-not-discarded-due-to-impurities_3500_Payment-model_advertising_target"":""45"",""anecdote_low_negative_Pharmacore_pharmaceutical_102_90_Pills-pressed_210000_Shelf-life_14_Probability-of-symptom-reduction-after-a-week_72_Drug-type_over-the-counter_comparison"":""55""}",NA,14/01/2021 12:27:10
NA,814.1112049999992,follow_up,survey-html-form,14,9776,0.0-0.0-2.0-8.0-0.0-0.0-0.0-0.2-2.2,mhqrfk5rueszjz7,anecdotes,experiment2,prolific,2,2,combined,6,NA,NA,NA,"{""follow-up_anecdote_negative_low_rating_similarity"":""2"",""follow-up_anecdote_negative_low_rating_relevance-specific"":""1"",""follow-up_anecdote_negative_low_rating_relevance-general"":""0"",""follow-up_anecdote_negative_low_text_justify"":""""}",NA,14/01/2021 12:27:10
NA,214.08711500000027,interstitial,survey-html-form,15,9993,0.0-0.0-2.0-8.0-0.0-0.0-0.0-0.3-0.3,mhqrfk5rueszjz7,anecdotes,experiment2,prolific,2,2,combined,6,NA,NA,NA,{},NA,14/01/2021 12:27:10
NA,NA,project_allocation,survey-html-form3,16,10481,0.0-0.0-2.0-8.0-0.0-0.0-0.0-0.3-1.3,mhqrfk5rueszjz7,anecdotes,experiment2,prolific,2,2,combined,6,NA,NA,NA,"{""anecdote_low_positive_Vital-Records_record-label_903_93_Record-projects-completed_13_Radio-listenership-nationally_3_Relevant-network-connections_21_Genre_rock_comparison"":""57"",""anecdote_low_positive_Dinerly_restaurant-chain_102_86_Restaurants-established_14_Number-of-reservations-on-a-Saturday-night_160_Positive-reviews_64_Restaurant-type_fast food_target"":""43""}",NA,14/01/2021 12:27:10
NA,604.7168009999987,follow_up,survey-html-form,17,11090,0.0-0.0-2.0-8.0-0.0-0.0-0.0-0.3-2.3,mhqrfk5rueszjz7,anecdotes,experiment2,prolific,2,2,combined,6,NA,NA,NA,"{""follow-up_anecdote_positive_low_rating_similarity"":""2"",""follow-up_anecdote_positive_low_rating_relevance-specific"":""5"",""follow-up_anecdote_positive_low_rating_relevance-general"":""1"",""follow-up_anecdote_positive_low_text_justify"":""""}",NA,14/01/2021 12:27:10
NA,243.13218600000073,interstitial,survey-html-form,18,11335,0.0-0.0-2.0-8.0-0.0-0.0-0.0-0.4-0.4,mhqrfk5rueszjz7,anecdotes,experiment2,prolific,2,2,combined,6,NA,NA,NA,{},NA,14/01/2021 12:27:10
NA,NA,project_allocation,survey-html-form3,19,11926,0.0-0.0-2.0-8.0-0.0-0.0-0.0-0.4-1.4,mhqrfk5rueszjz7,anecdotes,experiment2,prolific,2,2,combined,6,NA,NA,NA,"{""statistics-only_NA_NA_Railmont_railway_900_95_Railway-lines-built_5_Number-of-seats-filled-by-paying-customers-at-peak-hour_2000_Time-before-the-train-carriages-will-need-to-be-serviced_12_Operation-type_intracity_target"":""46"",""statistics-only_NA_NA_Erectic_high-rise-construction_102_87_High-rises-built_8_Probability-that-the-builders-complete-construction-within-a-month-of-the-due-date_70_Number-of-tenant-expressions-of-interest_100_Primary-use_mixed office-retail_comparison"":""54""}",NA,14/01/2021 12:27:10
NA,257.00092399999994,follow_up,survey-html-form,20,12184,0.0-0.0-2.0-8.0-0.0-0.0-0.0-0.4-2.4,mhqrfk5rueszjz7,anecdotes,experiment2,prolific,2,2,combined,6,NA,NA,NA,{},NA,14/01/2021 12:27:10
"[{""page_index"":0,""viewing_time"":109.09950299999946},{""page_index"":1,""viewing_time"":100.02681900000061}]",209.46721699999944,debrief,instructions,21,12396,0.0-0.0-3.0-0.0,mhqrfk5rueszjz7,anecdotes,experiment2,prolific,2,2,combined,6,NA,NA,NA,NA,NA,14/01/2021 12:27:10
