view_history,rt,stage,trial_type,trial_index,time_elapsed,internal_node_id,subject,thesis_project,experiment,sample,project_variation,anecdote_variation,anecdote_between,current_project_display_order,PROLIFIC_PID,STUDY_ID,SESSION_ID,responses,current_response,dateCreated
"[{""page_index"":0,""viewing_time"":34.70292899999805}]",34.89208299999902,welcome,instructions,0,35,0.0-0.0-0.0,mco0wk7doq9zae3,anecdotes,experiment2,prolific,3,1,combined,6,NA,NA,NA,NA,NA,03/03/2021 14:30:54
NA,200.38951599999777,id,survey-html-form,1,237,0.0-0.0-1.0-0.0,mco0wk7doq9zae3,anecdotes,experiment2,prolific,3,1,combined,6,NA,NA,NA,"{""prolific"":""test12349156383125158294""}",NA,03/03/2021 14:30:54
NA,335.9506050000008,contact,survey-html-form,2,574,0.0-0.0-1.0-1.0,mco0wk7doq9zae3,anecdotes,experiment2,prolific,3,1,combined,6,NA,NA,NA,"{""contact"":""no"",""address"":""test12345356388924637497""}",NA,03/03/2021 14:30:54
NA,893.2999859999987,demographics,survey-html-form,3,1469,0.0-0.0-1.0-2.0,mco0wk7doq9zae3,anecdotes,experiment2,prolific,3,1,combined,6,NA,NA,NA,"{""sex"":""female"",""age"":""71"",""language"":""Hebrew"",""language_other"":"""",""business_edu"":""90"",""business_exp"":""100"",""current"":""no""}",no,03/03/2021 14:30:54
NA,254.21076099999937,instructions,survey-html-form,4,1724,0.0-0.0-2.0-0.0-0.0,mco0wk7doq9zae3,anecdotes,experiment2,prolific,3,1,combined,6,NA,NA,NA,"{""instructions_test"":""31""}",NA,03/03/2021 14:30:54
NA,129.77012100000002,interstitial,survey-html-form,5,1855,0.0-0.0-2.0-10.0-0.0-0.0-0.0-0.0-0.0,mco0wk7doq9zae3,anecdotes,experiment2,prolific,3,1,combined,6,NA,NA,NA,{},NA,03/03/2021 14:30:54
NA,NA,project_allocation,survey-html-form3,6,2103,0.0-0.0-2.0-10.0-0.0-0.0-0.0-0.0-1.0,mco0wk7doq9zae3,anecdotes,experiment2,prolific,3,1,combined,6,NA,NA,NA,"{""anecdote_high_negative_Codeck_software_901_91_Code-written_1000_Security-rating_85_Number-of-potential-customers-in-first-year_3_Target-users_enterprise_target"":""54"",""anecdote_high_negative_Enfuel_oil-well_100_90_Oil-extracted_2000_Time-the-machinery-lasts-before-requiring-maintenance_7_Probability-of-finding-oil_80_Type-of-well_offshore_comparison"":""46""}",NA,03/03/2021 14:30:54
NA,325.12904500000104,follow_up,survey-html-form,7,2429,0.0-0.0-2.0-10.0-0.0-0.0-0.0-0.0-2.0,mco0wk7doq9zae3,anecdotes,experiment2,prolific,3,1,combined,6,NA,NA,NA,"{""follow-up_anecdote_negative_high_rating_similarity-rating"":""1"",""follow-up_anecdote_negative_high_rating_relevance-specific-rating"":""3"",""follow-up_anecdote_negative_high_rating_relevance-general-rating"":""7"",""follow-up_anecdote_negative_high_text_justify"":""""}",NA,03/03/2021 14:30:54
NA,141.28970999999865,interstitial,survey-html-form,8,2573,0.0-0.0-2.0-10.0-0.0-0.0-0.0-0.1-0.1,mco0wk7doq9zae3,anecdotes,experiment2,prolific,3,1,combined,6,NA,NA,NA,{},NA,03/03/2021 14:30:54
NA,NA,project_allocation,survey-html-form3,9,2915,0.0-0.0-2.0-10.0-0.0-0.0-0.0-0.1-1.1,mco0wk7doq9zae3,anecdotes,experiment2,prolific,3,1,combined,6,NA,NA,NA,"{""anecdote_high_positive_Refit_high-rise-construction_900_95_High-rises-built_8_Probability-that-the-builders-complete-construction-within-a-month-of-the-due-date_70_Number-of-tenant-expressions-of-interest_100_Primary-use_mixed-office-retail_comparison"":""55"",""anecdote_high_positive_Rural-Pass_railway_102_87_Railway-lines-built_5_Number-of-seats-filled-by-paying-customers-at-peak-hour_2000_Time-before-the-train-carriages-will-need-to-be-serviced_12_Operation-type_intracity_target"":""45""}",NA,03/03/2021 14:30:54
NA,310.9356110000017,follow_up,survey-html-form,10,3228,0.0-0.0-2.0-10.0-0.0-0.0-0.0-0.1-2.1,mco0wk7doq9zae3,anecdotes,experiment2,prolific,3,1,combined,6,NA,NA,NA,"{""follow-up_anecdote_positive_high_rating_similarity-rating"":""2"",""follow-up_anecdote_positive_high_rating_relevance-specific-rating"":""3"",""follow-up_anecdote_positive_high_rating_relevance-general-rating"":""5"",""follow-up_anecdote_positive_high_text_justify"":""""}",NA,03/03/2021 14:30:54
NA,138.53186700000106,interstitial,survey-html-form,11,3369,0.0-0.0-2.0-10.0-0.0-0.0-0.0-0.2-0.2,mco0wk7doq9zae3,anecdotes,experiment2,prolific,3,1,combined,6,NA,NA,NA,{},NA,03/03/2021 14:30:54
NA,NA,project_allocation,survey-html-form3,12,3681,0.0-0.0-2.0-10.0-0.0-0.0-0.0-0.2-1.2,mco0wk7doq9zae3,anecdotes,experiment2,prolific,3,1,combined,6,NA,NA,NA,"{""anecdote_low_negative_Solgistics_shipping-logistics_105_90_Packages-shipped_800_Number-of-orders-that-do-not-spend-time-in-a-bottleneck_400_Average-accuracy-of-shipments_90_Shipping-type_freight_comparison"":""54"",""anecdote_low_negative_Altchip_microchip_905_93_Microchips-produced_4000_Usable-semiconductor-yield-after-testing_60_Compatible-devices-in-the-market_75_Type-of-chip-architecture_Complex-Instruction-Set-Computing_target"":""46""}",NA,03/03/2021 14:30:54
NA,1031.2451499999997,follow_up,survey-html-form,13,4758,0.0-0.0-2.0-10.0-0.0-0.0-0.0-0.2-2.2,mco0wk7doq9zae3,anecdotes,experiment2,prolific,3,1,combined,6,NA,NA,NA,"{""follow-up_anecdote_negative_low_rating_similarity-rating"":""6"",""follow-up_anecdote_negative_low_rating_relevance-specific-rating"":""7"",""follow-up_anecdote_negative_low_rating_relevance-general-rating"":""2"",""follow-up_anecdote_negative_low_text_justify"":""""}",NA,03/03/2021 14:30:54
NA,313.7182869999933,interstitial,survey-html-form,14,5077,0.0-0.0-2.0-10.0-0.0-0.0-0.0-0.3-0.3,mco0wk7doq9zae3,anecdotes,experiment2,prolific,3,1,combined,6,NA,NA,NA,{},NA,03/03/2021 14:30:54
NA,NA,project_allocation,survey-html-form3,15,5295,0.0-0.0-2.0-10.0-0.0-0.0-0.0-0.3-1.3,mco0wk7doq9zae3,anecdotes,experiment2,prolific,3,1,combined,6,NA,NA,NA,"{""anecdote_low_positive_Grown-Media_national-newspaper_102_90_Newspapers-printed_50000_Number-of-weekly-advertisers_80_Ink-that-is-not-discarded-due-to-impurities_5000_Payment-model_subscription_target"":""51"",""anecdote_low_positive_Healthgenic_pharmaceutical_904_95_Pills-pressed_300000_Shelf-life_20_Probability-of-symptom-reduction-after-a-week_90_Drug-type_prescription-only_comparison"":""49""}",NA,03/03/2021 14:30:54
NA,452.1263919999965,follow_up,survey-html-form,16,5749,0.0-0.0-2.0-10.0-0.0-0.0-0.0-0.3-2.3,mco0wk7doq9zae3,anecdotes,experiment2,prolific,3,1,combined,6,NA,NA,NA,"{""follow-up_anecdote_positive_low_rating_similarity-rating"":""4"",""follow-up_anecdote_positive_low_rating_relevance-specific-rating"":""1"",""follow-up_anecdote_positive_low_rating_relevance-general-rating"":""7"",""follow-up_anecdote_positive_low_text_justify"":""""}",NA,03/03/2021 14:30:54
NA,144.24073499999668,interstitial,survey-html-form,17,5894,0.0-0.0-2.0-10.0-0.0-0.0-0.0-0.4-0.4,mco0wk7doq9zae3,anecdotes,experiment2,prolific,3,1,combined,6,NA,NA,NA,{},NA,03/03/2021 14:30:54
NA,NA,project_allocation,survey-html-form3,18,6457,0.0-0.0-2.0-10.0-0.0-0.0-0.0-0.4-1.4,mco0wk7doq9zae3,anecdotes,experiment2,prolific,3,1,combined,6,NA,NA,NA,"{""statistics-only_NA_NA_Poppin_record-label_102_86_Record-projects-completed_8_Radio-listenership-nationally_2_Relevant-network-connections_13_Genre_pop_comparison"":""55"",""statistics-only_NA_NA_Savoro_restaurant-chain_903_93_Restaurants-established_9_Number-of-reservations-on-a-Saturday-night_100_Positive-reviews_40_Restaurant-type_casual-sit-down-dining_target"":""45""}",NA,03/03/2021 14:30:54
NA,211.11481399999866,follow_up,survey-html-form,19,6669,0.0-0.0-2.0-10.0-0.0-0.0-0.0-0.4-2.4,mco0wk7doq9zae3,anecdotes,experiment2,prolific,3,1,combined,6,NA,NA,NA,{},NA,03/03/2021 14:30:54
"[{""page_index"":0,""viewing_time"":112.98968999999943},{""page_index"":1,""viewing_time"":68.54131499999767}]",181.75244899999416,debrief,instructions,20,6852,0.0-0.0-3.0-0.0,mco0wk7doq9zae3,anecdotes,experiment2,prolific,3,1,combined,6,NA,NA,NA,NA,NA,03/03/2021 14:30:54
