view_history,rt,stage,trial_type,trial_index,time_elapsed,internal_node_id,subject,thesis_project,experiment,sample,project_variation,anecdote_variation,anecdote_between,current_project_display_order,PROLIFIC_PID,STUDY_ID,SESSION_ID,responses,current_response,dateCreated
"[{""page_index"":0,""viewing_time"":60.20640200000571}]",60.79464299999415,welcome,instructions,0,62,0.0-0.0-0.0,u99m0xqqtj0kzpq,anecdotes,experiment2,prolific,4,2,anecdote_only,6,NA,NA,NA,NA,NA,14/01/2021 12:28:21
NA,306.26829900000985,id,survey-html-form,1,371,0.0-0.0-1.0-0.0,u99m0xqqtj0kzpq,anecdotes,experiment2,prolific,4,2,anecdote_only,6,NA,NA,NA,"{""prolific"":""test12344793874424369676""}",NA,14/01/2021 12:28:21
NA,459.10739800000044,contact,survey-html-form,2,832,0.0-0.0-1.0-1.0,u99m0xqqtj0kzpq,anecdotes,experiment2,prolific,4,2,anecdote_only,6,NA,NA,NA,"{""contact"":""yes"",""address"":""test12349227755396629583""}",NA,14/01/2021 12:28:21
NA,2023.7847060000006,demographics,survey-html-form,3,2860,0.0-0.0-1.0-2.0,u99m0xqqtj0kzpq,anecdotes,experiment2,prolific,4,2,anecdote_only,6,NA,NA,NA,"{""sex"":""female"",""age"":""62"",""language"":""Spanish"",""language_other"":"""",""business_edu"":""1"",""business_exp"":""64"",""current"":""yes""}",yes,14/01/2021 12:28:21
NA,3591.391153000003,business_information,survey-html-form,4,6456,0.0-0.0-1.0-3.0-0.0,u99m0xqqtj0kzpq,anecdotes,experiment2,prolific,4,2,anecdote_only,6,NA,NA,NA,"{""company_name"":""test12345845866466445655"",""sector"":""Asset Management - Brokers, Fund Mgmt, Stock Exchange"",""sector_other"":"""",""employees"":""2347131"",""revenue"":""312399"",""role_company"":""CSO"",""role_company_other"":"""",""role_allocation"":""Provide information and analysis for the decision-makers at the company"",""role_allocation_other"":"""",""budget"":""489356""}",NA,14/01/2021 12:28:21
NA,368.71523100001014,instructions,survey-html-form,5,6828,0.0-0.0-2.0-0.0-0.0,u99m0xqqtj0kzpq,anecdotes,experiment2,prolific,4,2,anecdote_only,6,NA,NA,NA,"{""instructions_test"":""78""}",NA,14/01/2021 12:28:21
NA,223.89096599999903,interstitial,survey-html-form,6,7056,0.0-0.0-2.0-15.0-0.0-0.0-0.0-0.0-0.0,u99m0xqqtj0kzpq,anecdotes,experiment2,prolific,4,2,anecdote_only,6,NA,NA,NA,{},NA,14/01/2021 12:28:21
NA,NA,project_allocation,survey-html-form3,7,7464,0.0-0.0-2.0-15.0-0.0-0.0-0.0-0.0-1.0,u99m0xqqtj0kzpq,anecdotes,experiment2,prolific,4,2,anecdote_only,6,NA,NA,NA,"{""anecdote_high_negative_Railmont_railway_902_94_Railway-lines-built_7_Number-of-seats-filled-by-paying-customers-at-peak-hour_2800_Time-before-the-train-carriages-will-need-to-be-serviced_17_Operation-type_intracity_target"":""46"",""anecdote_high_negative_Erectic_high-rise-construction_104_89_High-rises-built_11_Probability-that-the-builders-complete-construction-within-a-month-of-the-due-date_74_Number-of-tenant-expressions-of-interest_140_Primary-use_mixed office-retail_comparison"":""54""}",NA,14/01/2021 12:28:21
NA,716.9694520000003,follow_up,survey-html-form,8,8183,0.0-0.0-2.0-15.0-0.0-0.0-0.0-0.0-2.0,u99m0xqqtj0kzpq,anecdotes,experiment2,prolific,4,2,anecdote_only,6,NA,NA,NA,"{""follow-up_anecdote_negative_high_rating_similarity"":""2"",""follow-up_anecdote_negative_high_rating_relevance-specific"":""5"",""follow-up_anecdote_negative_high_rating_relevance-general"":""0"",""follow-up_anecdote_negative_high_text_justify"":""""}",NA,14/01/2021 12:28:21
NA,208.95883900000445,interstitial,survey-html-form,9,8395,0.0-0.0-2.0-15.0-0.0-0.0-0.0-0.1-0.1,u99m0xqqtj0kzpq,anecdotes,experiment2,prolific,4,2,anecdote_only,6,NA,NA,NA,{},NA,14/01/2021 12:28:21
NA,NA,project_allocation,survey-html-form3,10,8764,0.0-0.0-2.0-15.0-0.0-0.0-0.0-0.1-1.1,u99m0xqqtj0kzpq,anecdotes,experiment2,prolific,4,2,anecdote_only,6,NA,NA,NA,"{""anecdote_high_positive_Pressbloom_national-newspaper_104_88_Newspapers-printed_45000_Number-of-weekly-advertisers_72_Ink-that-is-not-discarded-due-to-impurities_4500_Payment-model_advertising_target"":""48"",""anecdote_high_positive_Pharmacore_pharmaceutical_903_93_Pills-pressed_270000_Shelf-life_18_Probability-of-symptom-reduction-after-a-week_81_Drug-type_over-the-counter_comparison"":""52""}",NA,14/01/2021 12:28:21
NA,667.4806009999938,follow_up,survey-html-form,11,9434,0.0-0.0-2.0-15.0-0.0-0.0-0.0-0.1-2.1,u99m0xqqtj0kzpq,anecdotes,experiment2,prolific,4,2,anecdote_only,6,NA,NA,NA,"{""follow-up_anecdote_positive_high_rating_similarity"":""6"",""follow-up_anecdote_positive_high_rating_relevance-specific"":""2"",""follow-up_anecdote_positive_high_rating_relevance-general"":""4"",""follow-up_anecdote_positive_high_text_justify"":""""}",NA,14/01/2021 12:28:21
NA,328.77502800001093,interstitial,survey-html-form,12,9765,0.0-0.0-2.0-15.0-0.0-0.0-0.0-0.2-0.2,u99m0xqqtj0kzpq,anecdotes,experiment2,prolific,4,2,anecdote_only,6,NA,NA,NA,{},NA,14/01/2021 12:28:21
NA,NA,project_allocation,survey-html-form3,13,10075,0.0-0.0-2.0-15.0-0.0-0.0-0.0-0.2-1.2,u99m0xqqtj0kzpq,anecdotes,experiment2,prolific,4,2,anecdote_only,6,NA,NA,NA,"{""anecdote_low_negative_Dinerly_restaurant-chain_904_94_Restaurants-established_6_Number-of-reservations-on-a-Saturday-night_70_Positive-reviews_28_Restaurant-type_fast food_target"":""60"",""anecdote_low_negative_Vital-Records_record-label_100_88_Record-projects-completed_6_Radio-listenership-nationally_1_Relevant-network-connections_9_Genre_rock_comparison"":""40""}",NA,14/01/2021 12:28:21
NA,553.113193000001,follow_up,survey-html-form,14,10632,0.0-0.0-2.0-15.0-0.0-0.0-0.0-0.2-2.2,u99m0xqqtj0kzpq,anecdotes,experiment2,prolific,4,2,anecdote_only,6,NA,NA,NA,"{""follow-up_anecdote_negative_low_rating_similarity"":""3"",""follow-up_anecdote_negative_low_rating_relevance-specific"":""6"",""follow-up_anecdote_negative_low_rating_relevance-general"":""2"",""follow-up_anecdote_negative_low_text_justify"":""""}",NA,14/01/2021 12:28:21
NA,208.51648200000818,interstitial,survey-html-form,15,10843,0.0-0.0-2.0-15.0-0.0-0.0-0.0-0.3-0.3,u99m0xqqtj0kzpq,anecdotes,experiment2,prolific,4,2,anecdote_only,6,NA,NA,NA,{},NA,14/01/2021 12:28:21
NA,NA,project_allocation,survey-html-form3,16,11185,0.0-0.0-2.0-15.0-0.0-0.0-0.0-0.3-1.3,u99m0xqqtj0kzpq,anecdotes,experiment2,prolific,4,2,anecdote_only,6,NA,NA,NA,"{""anecdote_low_positive_Refinera_oil-well_905_92_Oil-extracted_3200_Time-the-machinery-lasts-before-requiring-maintenance_11_Probability-of-finding-oil_88_Type-of-well_offshore_comparison"":""62"",""anecdote_low_positive_Cweb_software_102_90_Code-written_1600_Security-rating_96_Number-of-potential-customers-in-first-year_5_Target-users_enterprise_target"":""38""}",NA,14/01/2021 12:28:21
NA,650.0714390000012,follow_up,survey-html-form,17,11838,0.0-0.0-2.0-15.0-0.0-0.0-0.0-0.3-2.3,u99m0xqqtj0kzpq,anecdotes,experiment2,prolific,4,2,anecdote_only,6,NA,NA,NA,"{""follow-up_anecdote_positive_low_rating_similarity"":""2"",""follow-up_anecdote_positive_low_rating_relevance-specific"":""4"",""follow-up_anecdote_positive_low_rating_relevance-general"":""4"",""follow-up_anecdote_positive_low_text_justify"":""""}",NA,14/01/2021 12:28:21
NA,249.40800900000613,interstitial,survey-html-form,18,12090,0.0-0.0-2.0-15.0-0.0-0.0-0.0-0.4-0.4,u99m0xqqtj0kzpq,anecdotes,experiment2,prolific,4,2,anecdote_only,6,NA,NA,NA,{},NA,14/01/2021 12:28:21
NA,NA,project_allocation,survey-html-form3,19,12440,0.0-0.0-2.0-15.0-0.0-0.0-0.0-0.4-1.4,u99m0xqqtj0kzpq,anecdotes,experiment2,prolific,4,2,anecdote_only,6,NA,NA,NA,"{""statistics-only_NA_NA_Logivia_shipping-logistics_103_87_Packages-shipped_800_Number-of-orders-that-do-not-spend-time-in-a-bottleneck_400_Average-accuracy-of-shipments_94_Shipping-type_parcel_comparison"":""47"",""statistics-only_NA_NA_Microxy_microchip_902_94_Microchips-produced_4000_Usable-semiconductor-yield-after-testing_60_Compatible-devices-in-the-market_75_Type-of-chip-architecture_Reduced Instruction Set Computing_target"":""53""}",NA,14/01/2021 12:28:21
NA,219.38593400000173,follow_up,survey-html-form,20,12660,0.0-0.0-2.0-15.0-0.0-0.0-0.0-0.4-2.4,u99m0xqqtj0kzpq,anecdotes,experiment2,prolific,4,2,anecdote_only,6,NA,NA,NA,{},NA,14/01/2021 12:28:21
"[{""page_index"":0,""viewing_time"":99.45712400001139},{""page_index"":1,""viewing_time"":102.22324999999546}]",201.96693100000084,debrief,instructions,21,12866,0.0-0.0-3.0-0.0,u99m0xqqtj0kzpq,anecdotes,experiment2,prolific,4,2,anecdote_only,6,NA,NA,NA,NA,NA,14/01/2021 12:28:21
