view_history,rt,stage,trial_type,trial_index,time_elapsed,internal_node_id,subject,thesis_project,experiment,sample,project_variation,anecdote_variation,anecdote_between,current_project_display_order,PROLIFIC_PID,STUDY_ID,SESSION_ID,responses,current_response,dateCreated
"[{""page_index"":0,""viewing_time"":107.75138400000017}]",108.40848499999822,welcome,instructions,0,111,0.0-0.0-0.0,s7wedon7yjfhnn2,anecdotes,experiment2,prolific,3,2,anecdote_only,6,NA,NA,NA,NA,NA,20/01/2021 13:23:40
NA,432.8589979999968,id,survey-html-form,1,546,0.0-0.0-1.0-0.0,s7wedon7yjfhnn2,anecdotes,experiment2,prolific,3,2,anecdote_only,6,NA,NA,NA,"{""prolific"":""test12341928677677857966""}",NA,20/01/2021 13:23:40
NA,578.8702120000017,contact,survey-html-form,2,1127,0.0-0.0-1.0-1.0,s7wedon7yjfhnn2,anecdotes,experiment2,prolific,3,2,anecdote_only,6,NA,NA,NA,"{""contact"":""yes"",""address"":""test12346674791698795137""}",NA,20/01/2021 13:23:40
NA,1558.1030900000032,demographics,survey-html-form,3,2690,0.0-0.0-1.0-2.0,s7wedon7yjfhnn2,anecdotes,experiment2,prolific,3,2,anecdote_only,6,NA,NA,NA,"{""sex"":""female"",""age"":""10"",""language"":""Hebrew"",""language_other"":"""",""business_edu"":""11"",""business_exp"":""14"",""current"":""yes""}",yes,20/01/2021 13:23:40
NA,2836.2685530000003,business_information,survey-html-form,4,5537,0.0-0.0-1.0-3.0-0.0,s7wedon7yjfhnn2,anecdotes,experiment2,prolific,3,2,anecdote_only,6,NA,NA,NA,"{""company_name"":""test12344989148335452446"",""sector"":""Retail, Wholesale, Restaurants"",""sector_other"":"""",""employees"":""1055934"",""revenue"":""44441"",""role_company"":""Corporate President"",""role_company_other"":"""",""role_allocation"":""Decide on allocations for business unit or division"",""role_allocation_other"":"""",""budget"":""74511""}",NA,20/01/2021 13:23:40
NA,474.6055329999981,instructions,survey-html-form,5,6013,0.0-0.0-2.0-0.0-0.0,s7wedon7yjfhnn2,anecdotes,experiment2,prolific,3,2,anecdote_only,6,NA,NA,NA,"{""instructions_test"":""79""}",NA,20/01/2021 13:23:40
NA,266.2507620000024,interstitial,survey-html-form,6,6285,0.0-0.0-2.0-11.0-0.0-0.0-0.0-0.0-0.0,s7wedon7yjfhnn2,anecdotes,experiment2,prolific,3,2,anecdote_only,6,NA,NA,NA,{},NA,20/01/2021 13:23:40
NA,NA,project_allocation,survey-html-form3,7,6684,0.0-0.0-2.0-11.0-0.0-0.0-0.0-0.0-1.0,s7wedon7yjfhnn2,anecdotes,experiment2,prolific,3,2,anecdote_only,6,NA,NA,NA,"{""anecdote_high_negative_Cweb_software_905_92_Code-written_1400_Security-rating_84_Number-of-potential-customers-in-first-year_4_Target-users_enterprise_target"":""63"",""anecdote_high_negative_Refinera_oil-well_102_90_Oil-extracted_2800_Time-the-machinery-lasts-before-requiring-maintenance_10_Probability-of-finding-oil_84_Type-of-well_offshore_comparison"":""37""}",NA,20/01/2021 13:23:40
NA,766.1475119999996,follow_up,survey-html-form,8,7453,0.0-0.0-2.0-11.0-0.0-0.0-0.0-0.0-2.0,s7wedon7yjfhnn2,anecdotes,experiment2,prolific,3,2,anecdote_only,6,NA,NA,NA,"{""follow-up_anecdote_negative_high_rating_similarity-rating"":""2"",""follow-up_anecdote_negative_high_rating_relevance-specific-rating"":""2"",""follow-up_anecdote_negative_high_rating_relevance-general-rating"":""5"",""follow-up_anecdote_negative_high_text_justify"":""""}",NA,20/01/2021 13:23:40
NA,282.6511769999979,interstitial,survey-html-form,9,7740,0.0-0.0-2.0-11.0-0.0-0.0-0.0-0.1-0.1,s7wedon7yjfhnn2,anecdotes,experiment2,prolific,3,2,anecdote_only,6,NA,NA,NA,{},NA,20/01/2021 13:23:40
NA,NA,project_allocation,survey-html-form3,10,8134,0.0-0.0-2.0-11.0-0.0-0.0-0.0-0.1-1.1,s7wedon7yjfhnn2,anecdotes,experiment2,prolific,3,2,anecdote_only,6,NA,NA,NA,"{""anecdote_high_positive_Erectic_high-rise-construction_902_94_High-rises-built_7_Probability-that-the-builders-complete-construction-within-a-month-of-the-due-date_63_Number-of-tenant-expressions-of-interest_90_Primary-use_mixed office-retail_comparison"":""42"",""anecdote_high_positive_Railmont_railway_104_89_Railway-lines-built_4_Number-of-seats-filled-by-paying-customers-at-peak-hour_1800_Time-before-the-train-carriages-will-need-to-be-serviced_11_Operation-type_intracity_target"":""58""}",NA,20/01/2021 13:23:40
NA,655.5336620000007,follow_up,survey-html-form,11,8792,0.0-0.0-2.0-11.0-0.0-0.0-0.0-0.1-2.1,s7wedon7yjfhnn2,anecdotes,experiment2,prolific,3,2,anecdote_only,6,NA,NA,NA,"{""follow-up_anecdote_positive_high_rating_similarity-rating"":""3"",""follow-up_anecdote_positive_high_rating_relevance-specific-rating"":""2"",""follow-up_anecdote_positive_high_rating_relevance-general-rating"":""5"",""follow-up_anecdote_positive_high_text_justify"":""""}",NA,20/01/2021 13:23:40
NA,247.2480379999979,interstitial,survey-html-form,12,9041,0.0-0.0-2.0-11.0-0.0-0.0-0.0-0.2-0.2,s7wedon7yjfhnn2,anecdotes,experiment2,prolific,3,2,anecdote_only,6,NA,NA,NA,{},NA,20/01/2021 13:23:40
NA,NA,project_allocation,survey-html-form3,13,9436,0.0-0.0-2.0-11.0-0.0-0.0-0.0-0.2-1.2,s7wedon7yjfhnn2,anecdotes,experiment2,prolific,3,2,anecdote_only,6,NA,NA,NA,"{""anecdote_low_negative_Microxy_microchip_902_94_Microchips-produced_2800_Usable-semiconductor-yield-after-testing_48_Compatible-devices-in-the-market_60_Type-of-chip-architecture_Reduced Instruction Set Computing_target"":""54"",""anecdote_low_negative_Logivia_shipping-logistics_103_87_Packages-shipped_560_Number-of-orders-that-do-not-spend-time-in-a-bottleneck_280_Average-accuracy-of-shipments_75_Shipping-type_parcel_comparison"":""46""}",NA,20/01/2021 13:23:40
NA,561.7423230000004,follow_up,survey-html-form,14,10000,0.0-0.0-2.0-11.0-0.0-0.0-0.0-0.2-2.2,s7wedon7yjfhnn2,anecdotes,experiment2,prolific,3,2,anecdote_only,6,NA,NA,NA,"{""follow-up_anecdote_negative_low_rating_similarity-rating"":""0"",""follow-up_anecdote_negative_low_rating_relevance-specific-rating"":""4"",""follow-up_anecdote_negative_low_rating_relevance-general-rating"":""4"",""follow-up_anecdote_negative_low_text_justify"":""""}",NA,20/01/2021 13:23:40
NA,359.8092880000004,interstitial,survey-html-form,15,10366,0.0-0.0-2.0-11.0-0.0-0.0-0.0-0.3-0.3,s7wedon7yjfhnn2,anecdotes,experiment2,prolific,3,2,anecdote_only,6,NA,NA,NA,{},NA,20/01/2021 13:23:40
NA,NA,project_allocation,survey-html-form3,16,10811,0.0-0.0-2.0-11.0-0.0-0.0-0.0-0.3-1.3,s7wedon7yjfhnn2,anecdotes,experiment2,prolific,3,2,anecdote_only,6,NA,NA,NA,"{""anecdote_low_positive_Pharmacore_pharmaceutical_903_93_Pills-pressed_480000_Shelf-life_32_Probability-of-symptom-reduction-after-a-week_99_Drug-type_over-the-counter_comparison"":""50"",""anecdote_low_positive_Pressbloom_national-newspaper_104_88_Newspapers-printed_80000_Number-of-weekly-advertisers_128_Ink-that-is-not-discarded-due-to-impurities_8000_Payment-model_advertising_target"":""50""}",NA,20/01/2021 13:23:40
NA,658.1952489999949,follow_up,survey-html-form,17,11473,0.0-0.0-2.0-11.0-0.0-0.0-0.0-0.3-2.3,s7wedon7yjfhnn2,anecdotes,experiment2,prolific,3,2,anecdote_only,6,NA,NA,NA,"{""follow-up_anecdote_positive_low_rating_similarity-rating"":""5"",""follow-up_anecdote_positive_low_rating_relevance-specific-rating"":""1"",""follow-up_anecdote_positive_low_rating_relevance-general-rating"":""3"",""follow-up_anecdote_positive_low_text_justify"":""""}",NA,20/01/2021 13:23:40
NA,195.18052399999397,interstitial,survey-html-form,18,11670,0.0-0.0-2.0-11.0-0.0-0.0-0.0-0.4-0.4,s7wedon7yjfhnn2,anecdotes,experiment2,prolific,3,2,anecdote_only,6,NA,NA,NA,{},NA,20/01/2021 13:23:40
NA,NA,project_allocation,survey-html-form3,19,11991,0.0-0.0-2.0-11.0-0.0-0.0-0.0-0.4-1.4,s7wedon7yjfhnn2,anecdotes,experiment2,prolific,3,2,anecdote_only,6,NA,NA,NA,"{""statistics-only_NA_NA_Dinerly_restaurant-chain_904_94_Restaurants-established_9_Number-of-reservations-on-a-Saturday-night_100_Positive-reviews_40_Restaurant-type_fast food_target"":""45"",""statistics-only_NA_NA_Vital-Records_record-label_100_88_Record-projects-completed_8_Radio-listenership-nationally_2_Relevant-network-connections_13_Genre_rock_comparison"":""55""}",NA,20/01/2021 13:23:40
NA,293.4914410000001,follow_up,survey-html-form,20,12287,0.0-0.0-2.0-11.0-0.0-0.0-0.0-0.4-2.4,s7wedon7yjfhnn2,anecdotes,experiment2,prolific,3,2,anecdote_only,6,NA,NA,NA,{},NA,20/01/2021 13:23:40
"[{""page_index"":0,""viewing_time"":88.63122599999588},{""page_index"":1,""viewing_time"":81.76285799999823}]",170.6945119999964,debrief,instructions,21,12460,0.0-0.0-3.0-0.0,s7wedon7yjfhnn2,anecdotes,experiment2,prolific,3,2,anecdote_only,6,NA,NA,NA,NA,NA,20/01/2021 13:23:40
