view_history,rt,stage,trial_type,trial_index,time_elapsed,internal_node_id,subject,thesis_project,experiment,sample,project_variation,anecdote_variation,anecdote_between,current_project_display_order,PROLIFIC_PID,STUDY_ID,SESSION_ID,responses,current_response,dateCreated
"[{""page_index"":0,""viewing_time"":49.96824999999916}]",50.25574399999755,welcome,instructions,0,52,0.0-0.0-0.0,e3ng53ofpaukr0k,anecdotes,experiment2,prolific,3,2,anecdote_only,6,NA,NA,NA,NA,NA,11/01/2021 10:00:37
NA,278.1184220000057,id,survey-html-form,1,332,0.0-0.0-1.0-0.0,e3ng53ofpaukr0k,anecdotes,experiment2,prolific,3,2,anecdote_only,6,NA,NA,NA,"{""prolific"":""test12343985544388468982""}",NA,11/01/2021 10:00:37
NA,267.1602100000001,contact,survey-html-form,2,600,0.0-0.0-1.0-1.0,e3ng53ofpaukr0k,anecdotes,experiment2,prolific,3,2,anecdote_only,6,NA,NA,NA,"{""contact"":""yes"",""address"":""test12348979645365756878""}",NA,11/01/2021 10:00:37
NA,792.6730859999936,demographics,survey-html-form,3,1395,0.0-0.0-1.0-2.0,e3ng53ofpaukr0k,anecdotes,experiment2,prolific,3,2,anecdote_only,6,NA,NA,NA,"{""sex"":""male"",""age"":""53"",""language"":""Other"",""language_other"":""test12346984578444845233"",""business_edu"":""81"",""business_exp"":""52"",""current"":""no""}",no,11/01/2021 10:00:37
NA,184.57591800000023,instructions,survey-html-form,4,1580,0.0-0.0-2.0-0.0-0.0,e3ng53ofpaukr0k,anecdotes,experiment2,prolific,3,2,anecdote_only,6,NA,NA,NA,"{""instructions_test"":""54""}",NA,11/01/2021 10:00:37
NA,128.93341800000258,interstitial,survey-html-form,5,1711,0.0-0.0-2.0-11.0-0.0-0.0-0.0-0.0-0.0,e3ng53ofpaukr0k,anecdotes,experiment2,prolific,3,2,anecdote_only,6,NA,NA,NA,{},NA,11/01/2021 10:00:37
NA,NA,project_allocation,survey-html-form3,6,1878,0.0-0.0-2.0-11.0-0.0-0.0-0.0-0.0-1.0,e3ng53ofpaukr0k,anecdotes,experiment2,prolific,3,2,anecdote_only,6,NA,NA,NA,"{""anecdote_high_negative_Cweb_software_905_92_Code-written_1400_Security-rating_84_Number-of-potential-customers-in-first-year_4_Target-users_enterprise_target"":""52"",""anecdote_high_negative_Refinera_oil-well_102_90_Oil-extracted_2800_Time-the-machinery-lasts-before-requiring-maintenance_10_Probability-of-finding-oil_84_Type-of-well_offshore_comparison"":""48""}",NA,11/01/2021 10:00:37
NA,319.065051999999,follow_up,survey-html-form,7,2198,0.0-0.0-2.0-11.0-0.0-0.0-0.0-0.0-2.0,e3ng53ofpaukr0k,anecdotes,experiment2,prolific,3,2,anecdote_only,6,NA,NA,NA,"{""follow_up_rating_similarity"":""5"",""follow_up_rating_relevance_specific"":""3"",""follow_up_rating_relevance_general"":""1"",""follow_up_text_justify"":""""}",NA,11/01/2021 10:00:37
NA,122.48021599999947,interstitial,survey-html-form,8,2322,0.0-0.0-2.0-11.0-0.0-0.0-0.0-0.1-0.1,e3ng53ofpaukr0k,anecdotes,experiment2,prolific,3,2,anecdote_only,6,NA,NA,NA,{},NA,11/01/2021 10:00:37
NA,NA,project_allocation,survey-html-form3,9,2506,0.0-0.0-2.0-11.0-0.0-0.0-0.0-0.1-1.1,e3ng53ofpaukr0k,anecdotes,experiment2,prolific,3,2,anecdote_only,6,NA,NA,NA,"{""anecdote_high_positive_Railmont_railway_104_89_Railway-lines-built_4_Number-of-seats-filled-by-paying-customers-at-peak-hour_1800_Time-before-the-train-carriages-will-need-to-be-serviced_11_Operation-type_intracity_target"":""40"",""anecdote_high_positive_Erectic_high-rise-construction_902_94_High-rises-built_7_Probability-that-the-builders-complete-construction-within-a-month-of-the-due-date_63_Number-of-tenant-expressions-of-interest_90_Primary-use_mixed office-retail_comparison"":""60""}",NA,11/01/2021 10:00:37
NA,335.2279080000003,follow_up,survey-html-form,10,2843,0.0-0.0-2.0-11.0-0.0-0.0-0.0-0.1-2.1,e3ng53ofpaukr0k,anecdotes,experiment2,prolific,3,2,anecdote_only,6,NA,NA,NA,"{""follow_up_rating_similarity"":""5"",""follow_up_rating_relevance_specific"":""1"",""follow_up_rating_relevance_general"":""0"",""follow_up_text_justify"":""""}",NA,11/01/2021 10:00:37
NA,157.98247300000412,interstitial,survey-html-form,11,3003,0.0-0.0-2.0-11.0-0.0-0.0-0.0-0.2-0.2,e3ng53ofpaukr0k,anecdotes,experiment2,prolific,3,2,anecdote_only,6,NA,NA,NA,{},NA,11/01/2021 10:00:37
NA,NA,project_allocation,survey-html-form3,12,3171,0.0-0.0-2.0-11.0-0.0-0.0-0.0-0.2-1.2,e3ng53ofpaukr0k,anecdotes,experiment2,prolific,3,2,anecdote_only,6,NA,NA,NA,"{""anecdote_low_negative_Microxy_microchip_902_94_Microchips-produced_2800_Usable-semiconductor-yield-after-testing_48_Compatible-devices-in-the-market_60_Type-of-chip-architecture_Reduced Instruction Set Computing_target"":""55"",""anecdote_low_negative_Logivia_shipping-logistics_103_87_Packages-shipped_560_Number-of-orders-that-do-not-spend-time-in-a-bottleneck_280_Average-accuracy-of-shipments_75_Shipping-type_parcel_comparison"":""45""}",NA,11/01/2021 10:00:37
NA,281.9005719999982,follow_up,survey-html-form,13,3454,0.0-0.0-2.0-11.0-0.0-0.0-0.0-0.2-2.2,e3ng53ofpaukr0k,anecdotes,experiment2,prolific,3,2,anecdote_only,6,NA,NA,NA,"{""follow_up_rating_similarity"":""1"",""follow_up_rating_relevance_specific"":""4"",""follow_up_rating_relevance_general"":""5"",""follow_up_text_justify"":""""}",NA,11/01/2021 10:00:37
NA,115.36564000000044,interstitial,survey-html-form,14,3572,0.0-0.0-2.0-11.0-0.0-0.0-0.0-0.3-0.3,e3ng53ofpaukr0k,anecdotes,experiment2,prolific,3,2,anecdote_only,6,NA,NA,NA,{},NA,11/01/2021 10:00:37
NA,NA,project_allocation,survey-html-form3,15,3788,0.0-0.0-2.0-11.0-0.0-0.0-0.0-0.3-1.3,e3ng53ofpaukr0k,anecdotes,experiment2,prolific,3,2,anecdote_only,6,NA,NA,NA,"{""anecdote_low_positive_Pressbloom_national-newspaper_104_88_Newspapers-printed_80000_Number-of-weekly-advertisers_128_Ink-that-is-not-discarded-due-to-impurities_8000_Payment-model_advertising_target"":""65"",""anecdote_low_positive_Pharmacore_pharmaceutical_903_93_Pills-pressed_480000_Shelf-life_32_Probability-of-symptom-reduction-after-a-week_99_Drug-type_over-the-counter_comparison"":""35""}",NA,11/01/2021 10:00:37
NA,297.0348419999955,follow_up,survey-html-form,16,4087,0.0-0.0-2.0-11.0-0.0-0.0-0.0-0.3-2.3,e3ng53ofpaukr0k,anecdotes,experiment2,prolific,3,2,anecdote_only,6,NA,NA,NA,"{""follow_up_rating_similarity"":""3"",""follow_up_rating_relevance_specific"":""0"",""follow_up_rating_relevance_general"":""5"",""follow_up_text_justify"":""""}",NA,11/01/2021 10:00:37
NA,112.49937699999919,interstitial,survey-html-form,17,4200,0.0-0.0-2.0-11.0-0.0-0.0-0.0-0.4-0.4,e3ng53ofpaukr0k,anecdotes,experiment2,prolific,3,2,anecdote_only,6,NA,NA,NA,{},NA,11/01/2021 10:00:37
NA,NA,project_allocation,survey-html-form3,18,4412,0.0-0.0-2.0-11.0-0.0-0.0-0.0-0.4-1.4,e3ng53ofpaukr0k,anecdotes,experiment2,prolific,3,2,anecdote_only,6,NA,NA,NA,"{""statistics_only_NA_NA_Dinerly_restaurant-chain_904_94_Restaurants-established_9_Number-of-reservations-on-a-Saturday-night_100_Positive-reviews_40_Restaurant-type_fast food_target"":""46"",""statistics_only_NA_NA_Vital-Records_record-label_100_88_Record-projects-completed_8_Radio-listenership-nationally_2_Relevant-network-connections_13_Genre_rock_comparison"":""54""}",NA,11/01/2021 10:00:37
NA,123.17692300000272,follow_up,survey-html-form,19,4536,0.0-0.0-2.0-11.0-0.0-0.0-0.0-0.4-2.4,e3ng53ofpaukr0k,anecdotes,experiment2,prolific,3,2,anecdote_only,6,NA,NA,NA,{},NA,11/01/2021 10:00:37
"[{""page_index"":0,""viewing_time"":65.91584899999998},{""page_index"":1,""viewing_time"":84.74639599999955}]",150.86771500000395,debrief,instructions,20,4687,0.0-0.0-3.0-0.0,e3ng53ofpaukr0k,anecdotes,experiment2,prolific,3,2,anecdote_only,6,NA,NA,NA,NA,NA,11/01/2021 10:00:37
