view_history,rt,stage,trial_type,trial_index,time_elapsed,internal_node_id,subject,thesis_project,experiment,sample,project_variation,anecdote_variation,anecdote_between,current_project_display_order,PROLIFIC_PID,STUDY_ID,SESSION_ID,responses,current_response,dateCreated
"[{""page_index"":0,""viewing_time"":69.16532599998959}]",69.60344200000179,welcome,instructions,0,72,0.0-0.0-0.0,ggkb5y83yy3oc9s,anecdotes,experiment2,prolific,5,2,anecdote_only,6,NA,NA,NA,NA,NA,14/01/2021 12:29:13
NA,387.8210360000054,id,survey-html-form,1,464,0.0-0.0-1.0-0.0,ggkb5y83yy3oc9s,anecdotes,experiment2,prolific,5,2,anecdote_only,6,NA,NA,NA,"{""prolific"":""test12344431434154827529""}",NA,14/01/2021 12:29:13
NA,662.0990560000024,contact,survey-html-form,2,1128,0.0-0.0-1.0-1.0,ggkb5y83yy3oc9s,anecdotes,experiment2,prolific,5,2,anecdote_only,6,NA,NA,NA,"{""contact"":""no"",""address"":""test12346135236557276516""}",NA,14/01/2021 12:29:13
NA,1984.1720040000012,demographics,survey-html-form,3,3120,0.0-0.0-1.0-2.0,ggkb5y83yy3oc9s,anecdotes,experiment2,prolific,5,2,anecdote_only,6,NA,NA,NA,"{""sex"":""male"",""age"":""70"",""language"":""Vietnamese"",""language_other"":"""",""business_edu"":""6"",""business_exp"":""71"",""current"":""yes""}",yes,14/01/2021 12:29:13
NA,3491.198122,business_information,survey-html-form,4,6629,0.0-0.0-1.0-3.0-0.0,ggkb5y83yy3oc9s,anecdotes,experiment2,prolific,5,2,anecdote_only,6,NA,NA,NA,"{""company_name"":""test12343546354192255843"",""sector"":""Automotive"",""sector_other"":"""",""employees"":""1688985"",""revenue"":""364762"",""role_company"":""Chairman"",""role_company_other"":"""",""role_allocation"":""Decide on allocations for line of business level"",""role_allocation_other"":"""",""budget"":""556892""}",NA,14/01/2021 12:29:13
NA,472.89001500001814,instructions,survey-html-form,5,7104,0.0-0.0-2.0-0.0-0.0,ggkb5y83yy3oc9s,anecdotes,experiment2,prolific,5,2,anecdote_only,6,NA,NA,NA,"{""instructions_test"":""65""}",NA,14/01/2021 12:29:13
NA,433.4624180000046,interstitial,survey-html-form,6,7542,0.0-0.0-2.0-19.0-0.0-0.0-0.0-0.0-0.0,ggkb5y83yy3oc9s,anecdotes,experiment2,prolific,5,2,anecdote_only,6,NA,NA,NA,{},NA,14/01/2021 12:29:13
NA,NA,project_allocation,survey-html-form3,7,7892,0.0-0.0-2.0-19.0-0.0-0.0-0.0-0.0-1.0,ggkb5y83yy3oc9s,anecdotes,experiment2,prolific,5,2,anecdote_only,6,NA,NA,NA,"{""anecdote_high_negative_Pharmacore_pharmaceutical_104_88_Pills-pressed_420000_Shelf-life_28_Probability-of-symptom-reduction-after-a-week_94_Drug-type_over-the-counter_comparison"":""51"",""anecdote_high_negative_Pressbloom_national-newspaper_903_93_Newspapers-printed_70000_Number-of-weekly-advertisers_112_Ink-that-is-not-discarded-due-to-impurities_7000_Payment-model_advertising_target"":""49""}",NA,14/01/2021 12:29:13
NA,853.4755990000058,follow_up,survey-html-form,8,8749,0.0-0.0-2.0-19.0-0.0-0.0-0.0-0.0-2.0,ggkb5y83yy3oc9s,anecdotes,experiment2,prolific,5,2,anecdote_only,6,NA,NA,NA,"{""follow-up_anecdote_negative_high_rating_similarity"":""5"",""follow-up_anecdote_negative_high_rating_relevance-specific"":""3"",""follow-up_anecdote_negative_high_rating_relevance-general"":""6"",""follow-up_anecdote_negative_high_text_justify"":""""}",NA,14/01/2021 12:29:13
NA,273.0419949999996,interstitial,survey-html-form,9,9025,0.0-0.0-2.0-19.0-0.0-0.0-0.0-0.1-0.1,ggkb5y83yy3oc9s,anecdotes,experiment2,prolific,5,2,anecdote_only,6,NA,NA,NA,{},NA,14/01/2021 12:29:13
NA,NA,project_allocation,survey-html-form3,10,9663,0.0-0.0-2.0-19.0-0.0-0.0-0.0-0.1-1.1,ggkb5y83yy3oc9s,anecdotes,experiment2,prolific,5,2,anecdote_only,6,NA,NA,NA,"{""anecdote_high_positive_Vital-Records_record-label_904_94_Record-projects-completed_7_Radio-listenership-nationally_2_Relevant-network-connections_12_Genre_rock_comparison"":""56"",""anecdote_high_positive_Dinerly_restaurant-chain_100_88_Restaurants-established_8_Number-of-reservations-on-a-Saturday-night_90_Positive-reviews_36_Restaurant-type_fast food_target"":""44""}",NA,14/01/2021 12:29:13
NA,594.36862200002,follow_up,survey-html-form,11,10260,0.0-0.0-2.0-19.0-0.0-0.0-0.0-0.1-2.1,ggkb5y83yy3oc9s,anecdotes,experiment2,prolific,5,2,anecdote_only,6,NA,NA,NA,"{""follow-up_anecdote_positive_high_rating_similarity"":""0"",""follow-up_anecdote_positive_high_rating_relevance-specific"":""1"",""follow-up_anecdote_positive_high_rating_relevance-general"":""2"",""follow-up_anecdote_positive_high_text_justify"":""""}",NA,14/01/2021 12:29:13
NA,352.9387160000115,interstitial,survey-html-form,12,10617,0.0-0.0-2.0-19.0-0.0-0.0-0.0-0.2-0.2,ggkb5y83yy3oc9s,anecdotes,experiment2,prolific,5,2,anecdote_only,6,NA,NA,NA,{},NA,14/01/2021 12:29:13
NA,NA,project_allocation,survey-html-form3,13,11002,0.0-0.0-2.0-19.0-0.0-0.0-0.0-0.2-1.2,ggkb5y83yy3oc9s,anecdotes,experiment2,prolific,5,2,anecdote_only,6,NA,NA,NA,"{""anecdote_low_negative_Erectic_high-rise-construction_104_89_High-rises-built_6_Probability-that-the-builders-complete-construction-within-a-month-of-the-due-date_56_Number-of-tenant-expressions-of-interest_70_Primary-use_mixed office-retail_comparison"":""43"",""anecdote_low_negative_Railmont_railway_902_94_Railway-lines-built_4_Number-of-seats-filled-by-paying-customers-at-peak-hour_1400_Time-before-the-train-carriages-will-need-to-be-serviced_8_Operation-type_intracity_target"":""57""}",NA,14/01/2021 12:29:13
NA,1368.483212000001,follow_up,survey-html-form,14,12373,0.0-0.0-2.0-19.0-0.0-0.0-0.0-0.2-2.2,ggkb5y83yy3oc9s,anecdotes,experiment2,prolific,5,2,anecdote_only,6,NA,NA,NA,"{""follow-up_anecdote_negative_low_rating_similarity"":""0"",""follow-up_anecdote_negative_low_rating_relevance-specific"":""3"",""follow-up_anecdote_negative_low_rating_relevance-general"":""2"",""follow-up_anecdote_negative_low_text_justify"":""""}",NA,14/01/2021 12:29:13
NA,358.3341249999994,interstitial,survey-html-form,15,12743,0.0-0.0-2.0-19.0-0.0-0.0-0.0-0.3-0.3,ggkb5y83yy3oc9s,anecdotes,experiment2,prolific,5,2,anecdote_only,6,NA,NA,NA,{},NA,14/01/2021 12:29:13
NA,NA,project_allocation,survey-html-form3,16,13234,0.0-0.0-2.0-19.0-0.0-0.0-0.0-0.3-1.3,ggkb5y83yy3oc9s,anecdotes,experiment2,prolific,5,2,anecdote_only,6,NA,NA,NA,"{""anecdote_low_positive_Logivia_shipping-logistics_902_94_Packages-shipped_1280_Number-of-orders-that-do-not-spend-time-in-a-bottleneck_640_Average-accuracy-of-shipments_103_Shipping-type_parcel_comparison"":""52"",""anecdote_low_positive_Microxy_microchip_103_87_Microchips-produced_6400_Usable-semiconductor-yield-after-testing_66_Compatible-devices-in-the-market_82_Type-of-chip-architecture_Reduced Instruction Set Computing_target"":""48""}",NA,14/01/2021 12:29:13
NA,880.986221000001,follow_up,survey-html-form,17,14126,0.0-0.0-2.0-19.0-0.0-0.0-0.0-0.3-2.3,ggkb5y83yy3oc9s,anecdotes,experiment2,prolific,5,2,anecdote_only,6,NA,NA,NA,"{""follow-up_anecdote_positive_low_rating_similarity"":""2"",""follow-up_anecdote_positive_low_rating_relevance-specific"":""3"",""follow-up_anecdote_positive_low_rating_relevance-general"":""0"",""follow-up_anecdote_positive_low_text_justify"":""""}",NA,14/01/2021 12:29:13
NA,303.86934800000745,interstitial,survey-html-form,18,14432,0.0-0.0-2.0-19.0-0.0-0.0-0.0-0.4-0.4,ggkb5y83yy3oc9s,anecdotes,experiment2,prolific,5,2,anecdote_only,6,NA,NA,NA,{},NA,14/01/2021 12:29:13
NA,NA,project_allocation,survey-html-form3,19,14958,0.0-0.0-2.0-19.0-0.0-0.0-0.0-0.4-1.4,ggkb5y83yy3oc9s,anecdotes,experiment2,prolific,5,2,anecdote_only,6,NA,NA,NA,"{""statistics-only_NA_NA_Refinera_oil-well_102_90_Oil-extracted_2000_Time-the-machinery-lasts-before-requiring-maintenance_7_Probability-of-finding-oil_80_Type-of-well_offshore_comparison"":""40"",""statistics-only_NA_NA_Cweb_software_905_92_Code-written_1000_Security-rating_60_Number-of-potential-customers-in-first-year_3_Target-users_enterprise_target"":""60""}",NA,14/01/2021 12:29:13
NA,226.1231070000067,follow_up,survey-html-form,20,15189,0.0-0.0-2.0-19.0-0.0-0.0-0.0-0.4-2.4,ggkb5y83yy3oc9s,anecdotes,experiment2,prolific,5,2,anecdote_only,6,NA,NA,NA,{},NA,14/01/2021 12:29:13
"[{""page_index"":0,""viewing_time"":142.92139300002236},{""page_index"":1,""viewing_time"":100.43694099999811}]",243.66256000001704,debrief,instructions,21,15435,0.0-0.0-3.0-0.0,ggkb5y83yy3oc9s,anecdotes,experiment2,prolific,5,2,anecdote_only,6,NA,NA,NA,NA,NA,14/01/2021 12:29:13
