view_history,rt,stage,trial_type,trial_index,time_elapsed,internal_node_id,subject,thesis_project,experiment,sample,project_variation,anecdote_variation,anecdote_between,current_project_display_order,PROLIFIC_PID,STUDY_ID,SESSION_ID,responses,current_response,dateCreated
"[{""page_index"":0,""viewing_time"":447.38843200000014}]",448.5064389999997,welcome,instructions,0,452,0.0-0.0-0.0,zq4j9y2esqst8o1,anecdotes,experiment2,prolific,3,2,anecdote_only,6,NA,NA,NA,NA,NA,12/01/2021 11:17:18
NA,573.542646,id,survey-html-form,1,1037,0.0-0.0-1.0-0.0,zq4j9y2esqst8o1,anecdotes,experiment2,prolific,3,2,anecdote_only,6,NA,NA,NA,"{""prolific"":""test12343617938765658783""}",NA,12/01/2021 11:17:18
NA,737.0847890000002,contact,survey-html-form,2,1776,0.0-0.0-1.0-1.0,zq4j9y2esqst8o1,anecdotes,experiment2,prolific,3,2,anecdote_only,6,NA,NA,NA,"{""contact"":""yes"",""address"":""test12344418913631575719""}",NA,12/01/2021 11:17:18
NA,1607.8771699999993,demographics,survey-html-form,3,3396,0.0-0.0-1.0-2.0,zq4j9y2esqst8o1,anecdotes,experiment2,prolific,3,2,anecdote_only,6,NA,NA,NA,"{""sex"":""female"",""age"":""53"",""language"":""Greek"",""language_other"":"""",""business_edu"":""91"",""business_exp"":""82"",""current"":""yes""}",yes,12/01/2021 11:17:18
NA,2552.305016,business_information,survey-html-form,4,5955,0.0-0.0-1.0-3.0-0.0,zq4j9y2esqst8o1,anecdotes,experiment2,prolific,3,2,anecdote_only,6,NA,NA,NA,"{""company_name"":""test12343393736256771646"",""sector"":""Agriculture, Farming, Food Processing"",""sector_other"":"""",""employees"":""1039981"",""revenue"":""75864"",""role_company"":""EVP"",""role_company_other"":"""",""role_allocation"":""Decide on allocations for business unit or division"",""role_allocation_other"":"""",""budget"":""4361""}",NA,12/01/2021 11:17:18
NA,309.4444169999997,instructions,survey-html-form,5,6267,0.0-0.0-2.0-0.0-0.0,zq4j9y2esqst8o1,anecdotes,experiment2,prolific,3,2,anecdote_only,6,NA,NA,NA,"{""instructions_test"":""73""}",NA,12/01/2021 11:17:18
NA,174.27631800000108,interstitial,survey-html-form,6,6448,0.0-0.0-2.0-11.0-0.0-0.0-0.0-0.0-0.0,zq4j9y2esqst8o1,anecdotes,experiment2,prolific,3,2,anecdote_only,6,NA,NA,NA,{},NA,12/01/2021 11:17:18
NA,NA,project_allocation,survey-html-form3,7,6888,0.0-0.0-2.0-11.0-0.0-0.0-0.0-0.0-1.0,zq4j9y2esqst8o1,anecdotes,experiment2,prolific,3,2,anecdote_only,6,NA,NA,NA,"{""anecdote_high_negative_Cweb_software_905_92_Code-written_1400_Security-rating_84_Number-of-potential-customers-in-first-year_4_Target-users_enterprise_target"":""41"",""anecdote_high_negative_Refinera_oil-well_102_90_Oil-extracted_2800_Time-the-machinery-lasts-before-requiring-maintenance_10_Probability-of-finding-oil_84_Type-of-well_offshore_comparison"":""59""}",NA,12/01/2021 11:17:18
NA,628.171628000001,follow_up,survey-html-form,8,7519,0.0-0.0-2.0-11.0-0.0-0.0-0.0-0.0-2.0,zq4j9y2esqst8o1,anecdotes,experiment2,prolific,3,2,anecdote_only,6,NA,NA,NA,"{""follow-up_anecdote_negative_high_rating_similarity"":""2"",""follow-up_anecdote_negative_high_rating_relevance-specific"":""6"",""follow-up_anecdote_negative_high_rating_relevance-general"":""5"",""follow-up_anecdote_negative_high_text_justify"":""""}",NA,12/01/2021 11:17:18
NA,327.06402399999934,interstitial,survey-html-form,9,7850,0.0-0.0-2.0-11.0-0.0-0.0-0.0-0.1-0.1,zq4j9y2esqst8o1,anecdotes,experiment2,prolific,3,2,anecdote_only,6,NA,NA,NA,{},NA,12/01/2021 11:17:18
NA,NA,project_allocation,survey-html-form3,10,8231,0.0-0.0-2.0-11.0-0.0-0.0-0.0-0.1-1.1,zq4j9y2esqst8o1,anecdotes,experiment2,prolific,3,2,anecdote_only,6,NA,NA,NA,"{""anecdote_high_positive_Railmont_railway_104_89_Railway-lines-built_4_Number-of-seats-filled-by-paying-customers-at-peak-hour_1800_Time-before-the-train-carriages-will-need-to-be-serviced_11_Operation-type_intracity_target"":""46"",""anecdote_high_positive_Erectic_high-rise-construction_902_94_High-rises-built_7_Probability-that-the-builders-complete-construction-within-a-month-of-the-due-date_63_Number-of-tenant-expressions-of-interest_90_Primary-use_mixed office-retail_comparison"":""54""}",NA,12/01/2021 11:17:18
NA,581.570224000001,follow_up,survey-html-form,11,8818,0.0-0.0-2.0-11.0-0.0-0.0-0.0-0.1-2.1,zq4j9y2esqst8o1,anecdotes,experiment2,prolific,3,2,anecdote_only,6,NA,NA,NA,"{""follow-up_anecdote_positive_high_rating_similarity"":""5"",""follow-up_anecdote_positive_high_rating_relevance-specific"":""0"",""follow-up_anecdote_positive_high_rating_relevance-general"":""0"",""follow-up_anecdote_positive_high_text_justify"":""""}",NA,12/01/2021 11:17:18
NA,307.5067289999988,interstitial,survey-html-form,12,9128,0.0-0.0-2.0-11.0-0.0-0.0-0.0-0.2-0.2,zq4j9y2esqst8o1,anecdotes,experiment2,prolific,3,2,anecdote_only,6,NA,NA,NA,{},NA,12/01/2021 11:17:18
NA,NA,project_allocation,survey-html-form3,13,9758,0.0-0.0-2.0-11.0-0.0-0.0-0.0-0.2-1.2,zq4j9y2esqst8o1,anecdotes,experiment2,prolific,3,2,anecdote_only,6,NA,NA,NA,"{""anecdote_low_negative_Microxy_microchip_902_94_Microchips-produced_2800_Usable-semiconductor-yield-after-testing_48_Compatible-devices-in-the-market_60_Type-of-chip-architecture_Reduced Instruction Set Computing_target"":""45"",""anecdote_low_negative_Logivia_shipping-logistics_103_87_Packages-shipped_560_Number-of-orders-that-do-not-spend-time-in-a-bottleneck_280_Average-accuracy-of-shipments_75_Shipping-type_parcel_comparison"":""55""}",NA,12/01/2021 11:17:18
NA,610.3596390000002,follow_up,survey-html-form,14,10373,0.0-0.0-2.0-11.0-0.0-0.0-0.0-0.2-2.2,zq4j9y2esqst8o1,anecdotes,experiment2,prolific,3,2,anecdote_only,6,NA,NA,NA,"{""follow-up_anecdote_negative_low_rating_similarity"":""2"",""follow-up_anecdote_negative_low_rating_relevance-specific"":""1"",""follow-up_anecdote_negative_low_rating_relevance-general"":""0"",""follow-up_anecdote_negative_low_text_justify"":""""}",NA,12/01/2021 11:17:18
NA,308.4845290000012,interstitial,survey-html-form,15,10684,0.0-0.0-2.0-11.0-0.0-0.0-0.0-0.3-0.3,zq4j9y2esqst8o1,anecdotes,experiment2,prolific,3,2,anecdote_only,6,NA,NA,NA,{},NA,12/01/2021 11:17:18
NA,NA,project_allocation,survey-html-form3,16,11197,0.0-0.0-2.0-11.0-0.0-0.0-0.0-0.3-1.3,zq4j9y2esqst8o1,anecdotes,experiment2,prolific,3,2,anecdote_only,6,NA,NA,NA,"{""anecdote_low_positive_Pressbloom_national-newspaper_104_88_Newspapers-printed_80000_Number-of-weekly-advertisers_128_Ink-that-is-not-discarded-due-to-impurities_8000_Payment-model_advertising_target"":""57"",""anecdote_low_positive_Pharmacore_pharmaceutical_903_93_Pills-pressed_480000_Shelf-life_32_Probability-of-symptom-reduction-after-a-week_99_Drug-type_over-the-counter_comparison"":""43""}",NA,12/01/2021 11:17:18
NA,559.8900570000005,follow_up,survey-html-form,17,11760,0.0-0.0-2.0-11.0-0.0-0.0-0.0-0.3-2.3,zq4j9y2esqst8o1,anecdotes,experiment2,prolific,3,2,anecdote_only,6,NA,NA,NA,"{""follow-up_anecdote_positive_low_rating_similarity"":""2"",""follow-up_anecdote_positive_low_rating_relevance-specific"":""5"",""follow-up_anecdote_positive_low_rating_relevance-general"":""1"",""follow-up_anecdote_positive_low_text_justify"":""""}",NA,12/01/2021 11:17:18
NA,281.0277920000008,interstitial,survey-html-form,18,12044,0.0-0.0-2.0-11.0-0.0-0.0-0.0-0.4-0.4,zq4j9y2esqst8o1,anecdotes,experiment2,prolific,3,2,anecdote_only,6,NA,NA,NA,{},NA,12/01/2021 11:17:18
NA,NA,project_allocation,survey-html-form3,19,12467,0.0-0.0-2.0-11.0-0.0-0.0-0.0-0.4-1.4,zq4j9y2esqst8o1,anecdotes,experiment2,prolific,3,2,anecdote_only,6,NA,NA,NA,"{""statistics-only_NA_NA_Dinerly_restaurant-chain_904_94_Restaurants-established_9_Number-of-reservations-on-a-Saturday-night_100_Positive-reviews_40_Restaurant-type_fast food_target"":""46"",""statistics-only_NA_NA_Vital-Records_record-label_100_88_Record-projects-completed_8_Radio-listenership-nationally_2_Relevant-network-connections_13_Genre_rock_comparison"":""54""}",NA,12/01/2021 11:17:18
NA,272.0323900000003,follow_up,survey-html-form,20,12740,0.0-0.0-2.0-11.0-0.0-0.0-0.0-0.4-2.4,zq4j9y2esqst8o1,anecdotes,experiment2,prolific,3,2,anecdote_only,6,NA,NA,NA,{},NA,12/01/2021 11:17:18
"[{""page_index"":0,""viewing_time"":143.95521299999928},{""page_index"":1,""viewing_time"":110.96558100000038}]",255.22017500000038,debrief,instructions,21,12998,0.0-0.0-3.0-0.0,zq4j9y2esqst8o1,anecdotes,experiment2,prolific,3,2,anecdote_only,6,NA,NA,NA,NA,NA,12/01/2021 11:17:18
