view_history,rt,stage,trial_type,trial_index,time_elapsed,internal_node_id,subject,thesis_project,experiment,sample,project_variation,anecdote_variation,anecdote_between,current_project_display_order,PROLIFIC_PID,STUDY_ID,SESSION_ID,responses,current_response,dateCreated
"[{""page_index"":0,""viewing_time"":68.86158900000083}]",69.43714500000198,welcome,instructions,0,72,0.0-0.0-0.0,h9jyagmf7s9qqyg,anecdotes,experiment2,prolific,1,1,combined,6,NA,NA,NA,NA,NA,13/01/2021 14:53:27
NA,277.9663499999998,id,survey-html-form,1,352,0.0-0.0-1.0-0.0,h9jyagmf7s9qqyg,anecdotes,experiment2,prolific,1,1,combined,6,NA,NA,NA,"{""prolific"":""test12342236654446257397""}",NA,13/01/2021 14:53:27
NA,505.15602000000115,contact,survey-html-form,2,858,0.0-0.0-1.0-1.0,h9jyagmf7s9qqyg,anecdotes,experiment2,prolific,1,1,combined,6,NA,NA,NA,"{""contact"":""yes"",""address"":""test12346138267852237395""}",NA,13/01/2021 14:53:27
NA,1240.4958590000065,demographics,survey-html-form,3,2102,0.0-0.0-1.0-2.0,h9jyagmf7s9qqyg,anecdotes,experiment2,prolific,1,1,combined,6,NA,NA,NA,"{""sex"":""female"",""age"":""90"",""language"":""Other"",""language_other"":""test12349498498299157684"",""business_edu"":""2"",""business_exp"":""82"",""current"":""no""}",no,13/01/2021 14:53:27
NA,309.84904400000323,instructions,survey-html-form,4,2414,0.0-0.0-2.0-0.0-0.0,h9jyagmf7s9qqyg,anecdotes,experiment2,prolific,1,1,combined,6,NA,NA,NA,"{""instructions_test"":""52""}",NA,13/01/2021 14:53:27
NA,184.98420499999202,interstitial,survey-html-form,5,2601,0.0-0.0-2.0-2.0-0.0-0.0-0.0-0.0-0.0,h9jyagmf7s9qqyg,anecdotes,experiment2,prolific,1,1,combined,6,NA,NA,NA,{},NA,13/01/2021 14:53:27
NA,NA,project_allocation,survey-html-form3,6,2931,0.0-0.0-2.0-2.0-0.0-0.0-0.0-0.0-1.0,h9jyagmf7s9qqyg,anecdotes,experiment2,prolific,1,1,combined,6,NA,NA,NA,"{""anecdote_high_negative_Poppin_record-label_102_86_Record-projects-completed_8_Radio-listenership-nationally_2_Relevant-network-connections_13_Genre_rock_comparison"":""45"",""anecdote_high_negative_Savoro_restaurant-chain_903_93_Restaurants-established_9_Number-of-reservations-on-a-Saturday-night_100_Positive-reviews_40_Restaurant-type_fast food_target"":""55""}",NA,13/01/2021 14:53:27
NA,468.1553869999957,follow_up,survey-html-form,7,3402,0.0-0.0-2.0-2.0-0.0-0.0-0.0-0.0-2.0,h9jyagmf7s9qqyg,anecdotes,experiment2,prolific,1,1,combined,6,NA,NA,NA,"{""follow-up_anecdote_negative_high_rating_similarity"":""5"",""follow-up_anecdote_negative_high_rating_relevance-specific"":""0"",""follow-up_anecdote_negative_high_rating_relevance-general"":""5"",""follow-up_anecdote_negative_high_text_justify"":""""}",NA,13/01/2021 14:53:27
NA,208.0825320000058,interstitial,survey-html-form,8,3613,0.0-0.0-2.0-2.0-0.0-0.0-0.0-0.1-0.1,h9jyagmf7s9qqyg,anecdotes,experiment2,prolific,1,1,combined,6,NA,NA,NA,{},NA,13/01/2021 14:53:27
NA,NA,project_allocation,survey-html-form3,9,3929,0.0-0.0-2.0-2.0-0.0-0.0-0.0-0.1-1.1,h9jyagmf7s9qqyg,anecdotes,experiment2,prolific,1,1,combined,6,NA,NA,NA,"{""anecdote_high_positive_Solgistics_shipping-logistics_905_93_Packages-shipped_800_Number-of-orders-that-do-not-spend-time-in-a-bottleneck_400_Average-accuracy-of-shipments_94_Shipping-type_parcel_comparison"":""42"",""anecdote_high_positive_Altchip_microchip_105_90_Microchips-produced_4000_Usable-semiconductor-yield-after-testing_60_Compatible-devices-in-the-market_75_Type-of-chip-architecture_Reduced Instruction Set Computing_target"":""58""}",NA,13/01/2021 14:53:27
NA,462.56697799999847,follow_up,survey-html-form,10,4393,0.0-0.0-2.0-2.0-0.0-0.0-0.0-0.1-2.1,h9jyagmf7s9qqyg,anecdotes,experiment2,prolific,1,1,combined,6,NA,NA,NA,"{""follow-up_anecdote_positive_high_rating_similarity"":""0"",""follow-up_anecdote_positive_high_rating_relevance-specific"":""2"",""follow-up_anecdote_positive_high_rating_relevance-general"":""1"",""follow-up_anecdote_positive_high_text_justify"":""""}",NA,13/01/2021 14:53:27
NA,190.13249199998882,interstitial,survey-html-form,11,4585,0.0-0.0-2.0-2.0-0.0-0.0-0.0-0.2-0.2,h9jyagmf7s9qqyg,anecdotes,experiment2,prolific,1,1,combined,6,NA,NA,NA,{},NA,13/01/2021 14:53:27
NA,NA,project_allocation,survey-html-form3,12,4879,0.0-0.0-2.0-2.0-0.0-0.0-0.0-0.2-1.2,h9jyagmf7s9qqyg,anecdotes,experiment2,prolific,1,1,combined,6,NA,NA,NA,"{""anecdote_low_negative_Codeck_software_901_91_Code-written_1000_Security-rating_60_Number-of-potential-customers-in-first-year_3_Target-users_ordinary consumers_target"":""53"",""anecdote_low_negative_Enfuel_oil-well_100_90_Oil-extracted_2000_Time-the-machinery-lasts-before-requiring-maintenance_7_Probability-of-finding-oil_80_Type-of-well_onshore_comparison"":""47""}",NA,13/01/2021 14:53:27
NA,469.3660650000029,follow_up,survey-html-form,13,5350,0.0-0.0-2.0-2.0-0.0-0.0-0.0-0.2-2.2,h9jyagmf7s9qqyg,anecdotes,experiment2,prolific,1,1,combined,6,NA,NA,NA,"{""follow-up_anecdote_negative_low_rating_similarity"":""2"",""follow-up_anecdote_negative_low_rating_relevance-specific"":""5"",""follow-up_anecdote_negative_low_rating_relevance-general"":""1"",""follow-up_anecdote_negative_low_text_justify"":""""}",NA,13/01/2021 14:53:27
NA,253.92486100000133,interstitial,survey-html-form,14,5605,0.0-0.0-2.0-2.0-0.0-0.0-0.0-0.3-0.3,h9jyagmf7s9qqyg,anecdotes,experiment2,prolific,1,1,combined,6,NA,NA,NA,{},NA,13/01/2021 14:53:27
NA,NA,project_allocation,survey-html-form3,15,5876,0.0-0.0-2.0-2.0-0.0-0.0-0.0-0.3-1.3,h9jyagmf7s9qqyg,anecdotes,experiment2,prolific,1,1,combined,6,NA,NA,NA,"{""anecdote_low_positive_Refit_high-rise-construction_900_95_High-rises-built_8_Probability-that-the-builders-complete-construction-within-a-month-of-the-due-date_70_Number-of-tenant-expressions-of-interest_100_Primary-use_apartment_comparison"":""57"",""anecdote_low_positive_Rural-Pass_railway_102_87_Railway-lines-built_5_Number-of-seats-filled-by-paying-customers-at-peak-hour_2000_Time-before-the-train-carriages-will-need-to-be-serviced_12_Operation-type_intercity_target"":""43""}",NA,13/01/2021 14:53:27
NA,510.67160300000523,follow_up,survey-html-form,16,6389,0.0-0.0-2.0-2.0-0.0-0.0-0.0-0.3-2.3,h9jyagmf7s9qqyg,anecdotes,experiment2,prolific,1,1,combined,6,NA,NA,NA,"{""follow-up_anecdote_positive_low_rating_similarity"":""6"",""follow-up_anecdote_positive_low_rating_relevance-specific"":""5"",""follow-up_anecdote_positive_low_rating_relevance-general"":""2"",""follow-up_anecdote_positive_low_text_justify"":""""}",NA,13/01/2021 14:53:27
NA,175.66043300000456,interstitial,survey-html-form,17,6566,0.0-0.0-2.0-2.0-0.0-0.0-0.0-0.4-0.4,h9jyagmf7s9qqyg,anecdotes,experiment2,prolific,1,1,combined,6,NA,NA,NA,{},NA,13/01/2021 14:53:27
NA,NA,project_allocation,survey-html-form3,18,6846,0.0-0.0-2.0-2.0-0.0-0.0-0.0-0.4-1.4,h9jyagmf7s9qqyg,anecdotes,experiment2,prolific,1,1,combined,6,NA,NA,NA,"{""statistics-only_NA_NA_Grown-Media_national-newspaper_904_95_Newspapers-printed_50000_Number-of-weekly-advertisers_80_Ink-that-is-not-discarded-due-to-impurities_5000_Payment-model_subscription_target"":""66"",""statistics-only_NA_NA_Healthgenic_pharmaceutical_102_90_Pills-pressed_300000_Shelf-life_20_Probability-of-symptom-reduction-after-a-week_90_Drug-type_prescription-only_comparison"":""34""}",NA,13/01/2021 14:53:27
NA,199.00942099999975,follow_up,survey-html-form,19,7046,0.0-0.0-2.0-2.0-0.0-0.0-0.0-0.4-2.4,h9jyagmf7s9qqyg,anecdotes,experiment2,prolific,1,1,combined,6,NA,NA,NA,{},NA,13/01/2021 14:53:27
"[{""page_index"":0,""viewing_time"":72.3392339999973},{""page_index"":1,""viewing_time"":90.9426439999952}]",163.62598199999957,debrief,instructions,20,7211,0.0-0.0-3.0-0.0,h9jyagmf7s9qqyg,anecdotes,experiment2,prolific,1,1,combined,6,NA,NA,NA,NA,NA,13/01/2021 14:53:27
