view_history,rt,stage,trial_type,trial_index,time_elapsed,internal_node_id,subject,thesis_project,experiment,sample,project_variation,anecdote_variation,anecdote_between,current_project_display_order,PROLIFIC_PID,STUDY_ID,SESSION_ID,responses,current_response,dateCreated
"[{""page_index"":0,""viewing_time"":38.00768300000357}]",38.19469100000106,welcome,instructions,0,39,0.0-0.0-0.0,0r80q7u9wczbkn6,anecdotes,experiment2,prolific,3,2,anecdote_only,6,NA,NA,NA,NA,NA,11/01/2021 14:56:23
NA,203.82566099999622,id,survey-html-form,1,245,0.0-0.0-1.0-0.0,0r80q7u9wczbkn6,anecdotes,experiment2,prolific,3,2,anecdote_only,6,NA,NA,NA,"{""prolific"":""test12341346649944798721""}",NA,11/01/2021 14:56:23
NA,448.45236300000124,contact,survey-html-form,2,694,0.0-0.0-1.0-1.0,0r80q7u9wczbkn6,anecdotes,experiment2,prolific,3,2,anecdote_only,6,NA,NA,NA,"{""contact"":""no"",""address"":""test12349223952281396277""}",NA,11/01/2021 14:56:23
NA,871.9448449999873,demographics,survey-html-form,3,1568,0.0-0.0-1.0-2.0,0r80q7u9wczbkn6,anecdotes,experiment2,prolific,3,2,anecdote_only,6,NA,NA,NA,"{""sex"":""female"",""age"":""53"",""language"":""Chinese"",""language_other"":"""",""business_edu"":""92"",""business_exp"":""46"",""current"":""yes""}",yes,11/01/2021 14:56:23
NA,1461.4425169999947,business_information,survey-html-form,4,3031,0.0-0.0-1.0-3.0-0.0,0r80q7u9wczbkn6,anecdotes,experiment2,prolific,3,2,anecdote_only,6,NA,NA,NA,"{""company_name"":""test12342845329595812924"",""sector"":""Media - Broadcasting, Publishing, Information"",""sector_other"":"""",""employees"":""1663364"",""revenue"":""151171"",""role_company"":""CEO"",""role_company_other"":"""",""role_allocation"":""Decide on allocations for line of business level"",""role_allocation_other"":"""",""budget"":""584779""}",NA,11/01/2021 14:56:23
NA,210.67793000000256,instructions,survey-html-form,5,3243,0.0-0.0-2.0-0.0-0.0,0r80q7u9wczbkn6,anecdotes,experiment2,prolific,3,2,anecdote_only,6,NA,NA,NA,"{""instructions_test"":""84""}",NA,11/01/2021 14:56:23
NA,124.31431599999587,interstitial,survey-html-form,6,3369,0.0-0.0-2.0-11.0-0.0-0.0-0.0-0.0-0.0,0r80q7u9wczbkn6,anecdotes,experiment2,prolific,3,2,anecdote_only,6,NA,NA,NA,{},NA,11/01/2021 14:56:23
NA,NA,project_allocation,survey-html-form3,7,3567,0.0-0.0-2.0-11.0-0.0-0.0-0.0-0.0-1.0,0r80q7u9wczbkn6,anecdotes,experiment2,prolific,3,2,anecdote_only,6,NA,NA,NA,"{""anecdote_high_negative_Cweb_software_905_92_Code-written_1400_Security-rating_84_Number-of-potential-customers-in-first-year_4_Target-users_enterprise_target"":""53"",""anecdote_high_negative_Refinera_oil-well_102_90_Oil-extracted_2800_Time-the-machinery-lasts-before-requiring-maintenance_10_Probability-of-finding-oil_84_Type-of-well_offshore_comparison"":""47""}",NA,11/01/2021 14:56:23
NA,357.49800300000334,follow_up,survey-html-form,8,3926,0.0-0.0-2.0-11.0-0.0-0.0-0.0-0.0-2.0,0r80q7u9wczbkn6,anecdotes,experiment2,prolific,3,2,anecdote_only,6,NA,NA,NA,"{""follow-up_anecdote_negative_high_rating_similarity"":""1"",""follow-up_anecdote_negative_high_rating_relevance-specific"":""2"",""follow-up_anecdote_negative_high_rating_relevance-general"":""1"",""follow-up_anecdote_negative_high_text_justify"":""""}",NA,11/01/2021 14:56:23
NA,176.1842200000101,interstitial,survey-html-form,9,4103,0.0-0.0-2.0-11.0-0.0-0.0-0.0-0.1-0.1,0r80q7u9wczbkn6,anecdotes,experiment2,prolific,3,2,anecdote_only,6,NA,NA,NA,{},NA,11/01/2021 14:56:23
NA,NA,project_allocation,survey-html-form3,10,4272,0.0-0.0-2.0-11.0-0.0-0.0-0.0-0.1-1.1,0r80q7u9wczbkn6,anecdotes,experiment2,prolific,3,2,anecdote_only,6,NA,NA,NA,"{""anecdote_high_positive_Railmont_railway_104_89_Railway-lines-built_4_Number-of-seats-filled-by-paying-customers-at-peak-hour_1800_Time-before-the-train-carriages-will-need-to-be-serviced_11_Operation-type_intracity_target"":""50"",""anecdote_high_positive_Erectic_high-rise-construction_902_94_High-rises-built_7_Probability-that-the-builders-complete-construction-within-a-month-of-the-due-date_63_Number-of-tenant-expressions-of-interest_90_Primary-use_mixed office-retail_comparison"":""50""}",NA,11/01/2021 14:56:23
NA,286.67442400001164,follow_up,survey-html-form,11,4560,0.0-0.0-2.0-11.0-0.0-0.0-0.0-0.1-2.1,0r80q7u9wczbkn6,anecdotes,experiment2,prolific,3,2,anecdote_only,6,NA,NA,NA,"{""follow-up_anecdote_positive_high_rating_similarity"":""3"",""follow-up_anecdote_positive_high_rating_relevance-specific"":""2"",""follow-up_anecdote_positive_high_rating_relevance-general"":""6"",""follow-up_anecdote_positive_high_text_justify"":""""}",NA,11/01/2021 14:56:23
NA,125.5449079999944,interstitial,survey-html-form,12,4687,0.0-0.0-2.0-11.0-0.0-0.0-0.0-0.2-0.2,0r80q7u9wczbkn6,anecdotes,experiment2,prolific,3,2,anecdote_only,6,NA,NA,NA,{},NA,11/01/2021 14:56:23
NA,NA,project_allocation,survey-html-form3,13,4860,0.0-0.0-2.0-11.0-0.0-0.0-0.0-0.2-1.2,0r80q7u9wczbkn6,anecdotes,experiment2,prolific,3,2,anecdote_only,6,NA,NA,NA,"{""anecdote_low_negative_Microxy_microchip_902_94_Microchips-produced_2800_Usable-semiconductor-yield-after-testing_48_Compatible-devices-in-the-market_60_Type-of-chip-architecture_Reduced Instruction Set Computing_target"":""51"",""anecdote_low_negative_Logivia_shipping-logistics_103_87_Packages-shipped_560_Number-of-orders-that-do-not-spend-time-in-a-bottleneck_280_Average-accuracy-of-shipments_75_Shipping-type_parcel_comparison"":""49""}",NA,11/01/2021 14:56:23
NA,378.42991099999745,follow_up,survey-html-form,14,5240,0.0-0.0-2.0-11.0-0.0-0.0-0.0-0.2-2.2,0r80q7u9wczbkn6,anecdotes,experiment2,prolific,3,2,anecdote_only,6,NA,NA,NA,"{""follow-up_anecdote_negative_low_rating_similarity"":""2"",""follow-up_anecdote_negative_low_rating_relevance-specific"":""6"",""follow-up_anecdote_negative_low_rating_relevance-general"":""2"",""follow-up_anecdote_negative_low_text_justify"":""""}",NA,11/01/2021 14:56:23
NA,148.56068199999572,interstitial,survey-html-form,15,5392,0.0-0.0-2.0-11.0-0.0-0.0-0.0-0.3-0.3,0r80q7u9wczbkn6,anecdotes,experiment2,prolific,3,2,anecdote_only,6,NA,NA,NA,{},NA,11/01/2021 14:56:23
NA,NA,project_allocation,survey-html-form3,16,5593,0.0-0.0-2.0-11.0-0.0-0.0-0.0-0.3-1.3,0r80q7u9wczbkn6,anecdotes,experiment2,prolific,3,2,anecdote_only,6,NA,NA,NA,"{""anecdote_low_positive_Pressbloom_national-newspaper_104_88_Newspapers-printed_80000_Number-of-weekly-advertisers_128_Ink-that-is-not-discarded-due-to-impurities_8000_Payment-model_advertising_target"":""55"",""anecdote_low_positive_Pharmacore_pharmaceutical_903_93_Pills-pressed_480000_Shelf-life_32_Probability-of-symptom-reduction-after-a-week_99_Drug-type_over-the-counter_comparison"":""45""}",NA,11/01/2021 14:56:23
NA,304.589366000002,follow_up,survey-html-form,17,5899,0.0-0.0-2.0-11.0-0.0-0.0-0.0-0.3-2.3,0r80q7u9wczbkn6,anecdotes,experiment2,prolific,3,2,anecdote_only,6,NA,NA,NA,"{""follow-up_anecdote_positive_low_rating_similarity"":""3"",""follow-up_anecdote_positive_low_rating_relevance-specific"":""1"",""follow-up_anecdote_positive_low_rating_relevance-general"":""0"",""follow-up_anecdote_positive_low_text_justify"":""""}",NA,11/01/2021 14:56:23
NA,154.04487100001097,interstitial,survey-html-form,18,6055,0.0-0.0-2.0-11.0-0.0-0.0-0.0-0.4-0.4,0r80q7u9wczbkn6,anecdotes,experiment2,prolific,3,2,anecdote_only,6,NA,NA,NA,{},NA,11/01/2021 14:56:23
NA,NA,project_allocation,survey-html-form3,19,6373,0.0-0.0-2.0-11.0-0.0-0.0-0.0-0.4-1.4,0r80q7u9wczbkn6,anecdotes,experiment2,prolific,3,2,anecdote_only,6,NA,NA,NA,"{""statistics-only_NA_NA_Dinerly_restaurant-chain_904_94_Restaurants-established_9_Number-of-reservations-on-a-Saturday-night_100_Positive-reviews_40_Restaurant-type_fast food_target"":""51"",""statistics-only_NA_NA_Vital-Records_record-label_100_88_Record-projects-completed_8_Radio-listenership-nationally_2_Relevant-network-connections_13_Genre_rock_comparison"":""49""}",NA,11/01/2021 14:56:23
NA,132.61189300000387,follow_up,survey-html-form,20,6506,0.0-0.0-2.0-11.0-0.0-0.0-0.0-0.4-2.4,0r80q7u9wczbkn6,anecdotes,experiment2,prolific,3,2,anecdote_only,6,NA,NA,NA,{},NA,11/01/2021 14:56:23
"[{""page_index"":0,""viewing_time"":56.942164000005505},{""page_index"":1,""viewing_time"":56.49432999999226}]",113.60219700000562,debrief,instructions,21,6621,0.0-0.0-3.0-0.0,0r80q7u9wczbkn6,anecdotes,experiment2,prolific,3,2,anecdote_only,6,NA,NA,NA,NA,NA,11/01/2021 14:56:23
