view_history,rt,stage,trial_type,trial_index,time_elapsed,internal_node_id,subject,thesis_project,experiment,sample,project_variation,anecdote_variation,anecdote_between,current_project_display_order,PROLIFIC_PID,STUDY_ID,SESSION_ID,responses,current_response,dateCreated
"[{""page_index"":0,""viewing_time"":88.99495899999721}]",89.26540000000216,welcome,instructions,0,91,0.0-0.0-0.0,kxetssl7a4tfev2,anecdotes,experiment2,prolific,1,2,anecdote_only,6,NA,NA,NA,NA,NA,12/01/2021 11:17:45
NA,467.57591999999454,id,survey-html-form,1,564,0.0-0.0-1.0-0.0,kxetssl7a4tfev2,anecdotes,experiment2,prolific,1,2,anecdote_only,6,NA,NA,NA,"{""prolific"":""test12344466112833436795""}",NA,12/01/2021 11:17:45
NA,587.0674889999989,contact,survey-html-form,2,1163,0.0-0.0-1.0-1.0,kxetssl7a4tfev2,anecdotes,experiment2,prolific,1,2,anecdote_only,6,NA,NA,NA,"{""contact"":""yes"",""address"":""test12341664866475824841""}",NA,12/01/2021 11:17:45
NA,1471.4898459999972,demographics,survey-html-form,3,2648,0.0-0.0-1.0-2.0,kxetssl7a4tfev2,anecdotes,experiment2,prolific,1,2,anecdote_only,6,NA,NA,NA,"{""sex"":""female"",""age"":""22"",""language"":""Japanese"",""language_other"":"""",""business_edu"":""78"",""business_exp"":""94"",""current"":""no""}",no,12/01/2021 11:17:45
NA,473.0349199999964,instructions,survey-html-form,4,3123,0.0-0.0-2.0-0.0-0.0,kxetssl7a4tfev2,anecdotes,experiment2,prolific,1,2,anecdote_only,6,NA,NA,NA,"{""instructions_test"":""2""}",NA,12/01/2021 11:17:45
NA,233.7352799999976,interstitial,survey-html-form,5,3360,0.0-0.0-2.0-3.0-0.0-0.0-0.0-0.0-0.0,kxetssl7a4tfev2,anecdotes,experiment2,prolific,1,2,anecdote_only,6,NA,NA,NA,{},NA,12/01/2021 11:17:45
NA,NA,project_allocation,survey-html-form3,6,3775,0.0-0.0-2.0-3.0-0.0-0.0-0.0-0.0-1.0,kxetssl7a4tfev2,anecdotes,experiment2,prolific,1,2,anecdote_only,6,NA,NA,NA,"{""anecdote_high_negative_Dinerly_restaurant-chain_904_94_Restaurants-established_13_Number-of-reservations-on-a-Saturday-night_140_Positive-reviews_56_Restaurant-type_fast food_target"":""49"",""anecdote_high_negative_Vital-Records_record-label_100_88_Record-projects-completed_11_Radio-listenership-nationally_3_Relevant-network-connections_18_Genre_rock_comparison"":""51""}",NA,12/01/2021 11:17:45
NA,667.0723940000016,follow_up,survey-html-form,7,4444,0.0-0.0-2.0-3.0-0.0-0.0-0.0-0.0-2.0,kxetssl7a4tfev2,anecdotes,experiment2,prolific,1,2,anecdote_only,6,NA,NA,NA,"{""follow-up_anecdote_negative_high_rating_similarity"":""1"",""follow-up_anecdote_negative_high_rating_relevance-specific"":""0"",""follow-up_anecdote_negative_high_rating_relevance-general"":""6"",""follow-up_anecdote_negative_high_text_justify"":""""}",NA,12/01/2021 11:17:45
NA,243.31592600000113,interstitial,survey-html-form,8,4694,0.0-0.0-2.0-3.0-0.0-0.0-0.0-0.1-0.1,kxetssl7a4tfev2,anecdotes,experiment2,prolific,1,2,anecdote_only,6,NA,NA,NA,{},NA,12/01/2021 11:17:45
NA,NA,project_allocation,survey-html-form3,9,5037,0.0-0.0-2.0-3.0-0.0-0.0-0.0-0.1-1.1,kxetssl7a4tfev2,anecdotes,experiment2,prolific,1,2,anecdote_only,6,NA,NA,NA,"{""anecdote_high_positive_Microxy_microchip_103_87_Microchips-produced_3600_Usable-semiconductor-yield-after-testing_54_Compatible-devices-in-the-market_68_Type-of-chip-architecture_Reduced Instruction Set Computing_target"":""32"",""anecdote_high_positive_Logivia_shipping-logistics_902_94_Packages-shipped_720_Number-of-orders-that-do-not-spend-time-in-a-bottleneck_360_Average-accuracy-of-shipments_85_Shipping-type_parcel_comparison"":""68""}",NA,12/01/2021 11:17:45
NA,635.7134719999995,follow_up,survey-html-form,10,5674,0.0-0.0-2.0-3.0-0.0-0.0-0.0-0.1-2.1,kxetssl7a4tfev2,anecdotes,experiment2,prolific,1,2,anecdote_only,6,NA,NA,NA,"{""follow-up_anecdote_positive_high_rating_similarity"":""6"",""follow-up_anecdote_positive_high_rating_relevance-specific"":""5"",""follow-up_anecdote_positive_high_rating_relevance-general"":""2"",""follow-up_anecdote_positive_high_text_justify"":""""}",NA,12/01/2021 11:17:45
NA,243.5374699999993,interstitial,survey-html-form,11,5924,0.0-0.0-2.0-3.0-0.0-0.0-0.0-0.2-0.2,kxetssl7a4tfev2,anecdotes,experiment2,prolific,1,2,anecdote_only,6,NA,NA,NA,{},NA,12/01/2021 11:17:45
NA,NA,project_allocation,survey-html-form3,12,6364,0.0-0.0-2.0-3.0-0.0-0.0-0.0-0.2-1.2,kxetssl7a4tfev2,anecdotes,experiment2,prolific,1,2,anecdote_only,6,NA,NA,NA,"{""anecdote_low_negative_Cweb_software_905_92_Code-written_700_Security-rating_42_Number-of-potential-customers-in-first-year_2_Target-users_enterprise_target"":""43"",""anecdote_low_negative_Refinera_oil-well_102_90_Oil-extracted_1400_Time-the-machinery-lasts-before-requiring-maintenance_5_Probability-of-finding-oil_64_Type-of-well_offshore_comparison"":""57""}",NA,12/01/2021 11:17:45
NA,788.862666,follow_up,survey-html-form,13,7155,0.0-0.0-2.0-3.0-0.0-0.0-0.0-0.2-2.2,kxetssl7a4tfev2,anecdotes,experiment2,prolific,1,2,anecdote_only,6,NA,NA,NA,"{""follow-up_anecdote_negative_low_rating_similarity"":""4"",""follow-up_anecdote_negative_low_rating_relevance-specific"":""0"",""follow-up_anecdote_negative_low_rating_relevance-general"":""3"",""follow-up_anecdote_negative_low_text_justify"":""""}",NA,12/01/2021 11:17:45
NA,213.80446999999913,interstitial,survey-html-form,14,7381,0.0-0.0-2.0-3.0-0.0-0.0-0.0-0.3-0.3,kxetssl7a4tfev2,anecdotes,experiment2,prolific,1,2,anecdote_only,6,NA,NA,NA,{},NA,12/01/2021 11:17:45
NA,NA,project_allocation,survey-html-form3,15,7718,0.0-0.0-2.0-3.0-0.0-0.0-0.0-0.3-1.3,kxetssl7a4tfev2,anecdotes,experiment2,prolific,1,2,anecdote_only,6,NA,NA,NA,"{""anecdote_low_positive_Railmont_railway_104_89_Railway-lines-built_8_Number-of-seats-filled-by-paying-customers-at-peak-hour_3200_Time-before-the-train-carriages-will-need-to-be-serviced_19_Operation-type_intracity_target"":""50"",""anecdote_low_positive_Erectic_high-rise-construction_902_94_High-rises-built_13_Probability-that-the-builders-complete-construction-within-a-month-of-the-due-date_77_Number-of-tenant-expressions-of-interest_160_Primary-use_mixed office-retail_comparison"":""50""}",NA,12/01/2021 11:17:45
NA,489.53720800000247,follow_up,survey-html-form,16,8215,0.0-0.0-2.0-3.0-0.0-0.0-0.0-0.3-2.3,kxetssl7a4tfev2,anecdotes,experiment2,prolific,1,2,anecdote_only,6,NA,NA,NA,"{""follow-up_anecdote_positive_low_rating_similarity"":""1"",""follow-up_anecdote_positive_low_rating_relevance-specific"":""2"",""follow-up_anecdote_positive_low_rating_relevance-general"":""0"",""follow-up_anecdote_positive_low_text_justify"":""""}",NA,12/01/2021 11:17:45
NA,207.2666500000014,interstitial,survey-html-form,17,8425,0.0-0.0-2.0-3.0-0.0-0.0-0.0-0.4-0.4,kxetssl7a4tfev2,anecdotes,experiment2,prolific,1,2,anecdote_only,6,NA,NA,NA,{},NA,12/01/2021 11:17:45
NA,NA,project_allocation,survey-html-form3,18,8831,0.0-0.0-2.0-3.0-0.0-0.0-0.0-0.4-1.4,kxetssl7a4tfev2,anecdotes,experiment2,prolific,1,2,anecdote_only,6,NA,NA,NA,"{""statistics-only_NA_NA_Pressbloom_national-newspaper_903_93_Newspapers-printed_50000_Number-of-weekly-advertisers_80_Ink-that-is-not-discarded-due-to-impurities_5000_Payment-model_advertising_target"":""48"",""statistics-only_NA_NA_Pharmacore_pharmaceutical_104_88_Pills-pressed_300000_Shelf-life_20_Probability-of-symptom-reduction-after-a-week_90_Drug-type_over-the-counter_comparison"":""52""}",NA,12/01/2021 11:17:45
NA,399.4478840000047,follow_up,survey-html-form,19,9232,0.0-0.0-2.0-3.0-0.0-0.0-0.0-0.4-2.4,kxetssl7a4tfev2,anecdotes,experiment2,prolific,1,2,anecdote_only,6,NA,NA,NA,{},NA,12/01/2021 11:17:45
"[{""page_index"":0,""viewing_time"":103.97872899999675},{""page_index"":1,""viewing_time"":91.74494900000354}]",195.93927399999666,debrief,instructions,20,9429,0.0-0.0-3.0-0.0,kxetssl7a4tfev2,anecdotes,experiment2,prolific,1,2,anecdote_only,6,NA,NA,NA,NA,NA,12/01/2021 11:17:45
