view_history,rt,stage,trial_type,trial_index,time_elapsed,internal_node_id,subject,thesis_project,experiment,sample,project_variation,anecdote_variation,anecdote_between,current_project_display_order,PROLIFIC_PID,STUDY_ID,SESSION_ID,responses,current_response,dateCreated
"[{""page_index"":0,""viewing_time"":37.8336389999987}]",38.12925399999756,welcome,instructions,0,39,0.0-0.0-0.0,qvuvydrt41x2l80,anecdotes,experiment2,prolific,1,2,combined,6,NA,NA,NA,NA,NA,11/01/2021 14:56:55
NA,178.0526919999943,id,survey-html-form,1,219,0.0-0.0-1.0-0.0,qvuvydrt41x2l80,anecdotes,experiment2,prolific,1,2,combined,6,NA,NA,NA,"{""prolific"":""test12346437115314261187""}",NA,11/01/2021 14:56:55
NA,404.0139830000129,contact,survey-html-form,2,624,0.0-0.0-1.0-1.0,qvuvydrt41x2l80,anecdotes,experiment2,prolific,1,2,combined,6,NA,NA,NA,"{""contact"":""no"",""address"":""test12341485563347319559""}",NA,11/01/2021 14:56:55
NA,699.0499280000081,demographics,survey-html-form,3,1326,0.0-0.0-1.0-2.0,qvuvydrt41x2l80,anecdotes,experiment2,prolific,1,2,combined,6,NA,NA,NA,"{""sex"":""male"",""age"":""42"",""language"":""Italian"",""language_other"":"""",""business_edu"":""60"",""business_exp"":""96"",""current"":""yes""}",yes,11/01/2021 14:56:55
NA,1223.887191000003,business_information,survey-html-form,4,2554,0.0-0.0-1.0-3.0-0.0,qvuvydrt41x2l80,anecdotes,experiment2,prolific,1,2,combined,6,NA,NA,NA,"{""company_name"":""test12349575586855295171"",""sector"":""Travel, Transport & Logistics, Hotels"",""sector_other"":"""",""employees"":""489713"",""revenue"":""504035"",""role_company"":""Managing Director"",""role_company_other"":"""",""role_allocation"":""Provide information and analysis for the decision-makers at business unit or division"",""role_allocation_other"":"""",""budget"":""348930""}",NA,11/01/2021 14:56:55
NA,224.9767790000019,instructions,survey-html-form,5,2779,0.0-0.0-2.0-0.0-0.0,qvuvydrt41x2l80,anecdotes,experiment2,prolific,1,2,combined,6,NA,NA,NA,"{""instructions_test"":""51""}",NA,11/01/2021 14:56:55
NA,116.88195199999973,interstitial,survey-html-form,6,2898,0.0-0.0-2.0-4.0-0.0-0.0-0.0-0.0-0.0,qvuvydrt41x2l80,anecdotes,experiment2,prolific,1,2,combined,6,NA,NA,NA,{},NA,11/01/2021 14:56:55
NA,NA,project_allocation,survey-html-form3,7,3065,0.0-0.0-2.0-4.0-0.0-0.0-0.0-0.0-1.0,qvuvydrt41x2l80,anecdotes,experiment2,prolific,1,2,combined,6,NA,NA,NA,"{""anecdote_high_negative_Dinerly_restaurant-chain_903_93_Restaurants-established_13_Number-of-reservations-on-a-Saturday-night_140_Positive-reviews_56_Restaurant-type_fast food_target"":""63"",""anecdote_high_negative_Vital-Records_record-label_102_86_Record-projects-completed_11_Radio-listenership-nationally_3_Relevant-network-connections_18_Genre_rock_comparison"":""37""}",NA,11/01/2021 14:56:55
NA,295.8560560000051,follow_up,survey-html-form,8,3362,0.0-0.0-2.0-4.0-0.0-0.0-0.0-0.0-2.0,qvuvydrt41x2l80,anecdotes,experiment2,prolific,1,2,combined,6,NA,NA,NA,"{""follow-up_anecdote_negative_high_rating_similarity"":""3"",""follow-up_anecdote_negative_high_rating_relevance-specific"":""4"",""follow-up_anecdote_negative_high_rating_relevance-general"":""2"",""follow-up_anecdote_negative_high_text_justify"":""""}",NA,11/01/2021 14:56:55
NA,116.46245500000441,interstitial,survey-html-form,9,3479,0.0-0.0-2.0-4.0-0.0-0.0-0.0-0.1-0.1,qvuvydrt41x2l80,anecdotes,experiment2,prolific,1,2,combined,6,NA,NA,NA,{},NA,11/01/2021 14:56:55
NA,NA,project_allocation,survey-html-form3,10,3640,0.0-0.0-2.0-4.0-0.0-0.0-0.0-0.1-1.1,qvuvydrt41x2l80,anecdotes,experiment2,prolific,1,2,combined,6,NA,NA,NA,"{""anecdote_high_positive_Microxy_microchip_105_90_Microchips-produced_3600_Usable-semiconductor-yield-after-testing_54_Compatible-devices-in-the-market_68_Type-of-chip-architecture_Reduced Instruction Set Computing_target"":""47"",""anecdote_high_positive_Logivia_shipping-logistics_905_93_Packages-shipped_720_Number-of-orders-that-do-not-spend-time-in-a-bottleneck_360_Average-accuracy-of-shipments_85_Shipping-type_parcel_comparison"":""53""}",NA,11/01/2021 14:56:55
NA,296.82080799999267,follow_up,survey-html-form,11,3938,0.0-0.0-2.0-4.0-0.0-0.0-0.0-0.1-2.1,qvuvydrt41x2l80,anecdotes,experiment2,prolific,1,2,combined,6,NA,NA,NA,"{""follow-up_anecdote_positive_high_rating_similarity"":""6"",""follow-up_anecdote_positive_high_rating_relevance-specific"":""6"",""follow-up_anecdote_positive_high_rating_relevance-general"":""2"",""follow-up_anecdote_positive_high_text_justify"":""""}",NA,11/01/2021 14:56:55
NA,114.11313899999686,interstitial,survey-html-form,12,4054,0.0-0.0-2.0-4.0-0.0-0.0-0.0-0.2-0.2,qvuvydrt41x2l80,anecdotes,experiment2,prolific,1,2,combined,6,NA,NA,NA,{},NA,11/01/2021 14:56:55
NA,NA,project_allocation,survey-html-form3,13,4214,0.0-0.0-2.0-4.0-0.0-0.0-0.0-0.2-1.2,qvuvydrt41x2l80,anecdotes,experiment2,prolific,1,2,combined,6,NA,NA,NA,"{""anecdote_low_negative_Cweb_software_901_91_Code-written_700_Security-rating_42_Number-of-potential-customers-in-first-year_2_Target-users_enterprise_target"":""54"",""anecdote_low_negative_Refinera_oil-well_100_90_Oil-extracted_1400_Time-the-machinery-lasts-before-requiring-maintenance_5_Probability-of-finding-oil_64_Type-of-well_offshore_comparison"":""46""}",NA,11/01/2021 14:56:55
NA,290.8115030000008,follow_up,survey-html-form,14,4506,0.0-0.0-2.0-4.0-0.0-0.0-0.0-0.2-2.2,qvuvydrt41x2l80,anecdotes,experiment2,prolific,1,2,combined,6,NA,NA,NA,"{""follow-up_anecdote_negative_low_rating_similarity"":""4"",""follow-up_anecdote_negative_low_rating_relevance-specific"":""2"",""follow-up_anecdote_negative_low_rating_relevance-general"":""1"",""follow-up_anecdote_negative_low_text_justify"":""""}",NA,11/01/2021 14:56:55
NA,116.93052999999054,interstitial,survey-html-form,15,4624,0.0-0.0-2.0-4.0-0.0-0.0-0.0-0.3-0.3,qvuvydrt41x2l80,anecdotes,experiment2,prolific,1,2,combined,6,NA,NA,NA,{},NA,11/01/2021 14:56:55
NA,NA,project_allocation,survey-html-form3,16,4790,0.0-0.0-2.0-4.0-0.0-0.0-0.0-0.3-1.3,qvuvydrt41x2l80,anecdotes,experiment2,prolific,1,2,combined,6,NA,NA,NA,"{""anecdote_low_positive_Railmont_railway_102_87_Railway-lines-built_8_Number-of-seats-filled-by-paying-customers-at-peak-hour_3200_Time-before-the-train-carriages-will-need-to-be-serviced_19_Operation-type_intracity_target"":""49"",""anecdote_low_positive_Erectic_high-rise-construction_900_95_High-rises-built_13_Probability-that-the-builders-complete-construction-within-a-month-of-the-due-date_77_Number-of-tenant-expressions-of-interest_160_Primary-use_mixed office-retail_comparison"":""51""}",NA,11/01/2021 14:56:55
NA,364.68130400000155,follow_up,survey-html-form,17,5157,0.0-0.0-2.0-4.0-0.0-0.0-0.0-0.3-2.3,qvuvydrt41x2l80,anecdotes,experiment2,prolific,1,2,combined,6,NA,NA,NA,"{""follow-up_anecdote_positive_low_rating_similarity"":""1"",""follow-up_anecdote_positive_low_rating_relevance-specific"":""6"",""follow-up_anecdote_positive_low_rating_relevance-general"":""2"",""follow-up_anecdote_positive_low_text_justify"":""""}",NA,11/01/2021 14:56:55
NA,206.81552600000032,interstitial,survey-html-form,18,5366,0.0-0.0-2.0-4.0-0.0-0.0-0.0-0.4-0.4,qvuvydrt41x2l80,anecdotes,experiment2,prolific,1,2,combined,6,NA,NA,NA,{},NA,11/01/2021 14:56:55
NA,NA,project_allocation,survey-html-form3,19,5538,0.0-0.0-2.0-4.0-0.0-0.0-0.0-0.4-1.4,qvuvydrt41x2l80,anecdotes,experiment2,prolific,1,2,combined,6,NA,NA,NA,"{""statistics-only_NA_NA_Pressbloom_national-newspaper_904_95_Newspapers-printed_50000_Number-of-weekly-advertisers_80_Ink-that-is-not-discarded-due-to-impurities_5000_Payment-model_advertising_target"":""33"",""statistics-only_NA_NA_Pharmacore_pharmaceutical_102_90_Pills-pressed_300000_Shelf-life_20_Probability-of-symptom-reduction-after-a-week_90_Drug-type_over-the-counter_comparison"":""67""}",NA,11/01/2021 14:56:55
NA,115.91599700000188,follow_up,survey-html-form,20,5654,0.0-0.0-2.0-4.0-0.0-0.0-0.0-0.4-2.4,qvuvydrt41x2l80,anecdotes,experiment2,prolific,1,2,combined,6,NA,NA,NA,{},NA,11/01/2021 14:56:55
"[{""page_index"":0,""viewing_time"":52.253118000009636},{""page_index"":1,""viewing_time"":51.181888999992225}]",103.58257000000049,debrief,instructions,21,5760,0.0-0.0-3.0-0.0,qvuvydrt41x2l80,anecdotes,experiment2,prolific,1,2,combined,6,NA,NA,NA,NA,NA,11/01/2021 14:56:55
