view_history,rt,stage,trial_type,trial_index,time_elapsed,internal_node_id,subject,thesis_project,experiment,sample,project_variation,anecdote_variation,anecdote_between,current_project_display_order,PROLIFIC_PID,STUDY_ID,SESSION_ID,responses,current_response,dateCreated
"[{""page_index"":0,""viewing_time"":48.19375600000342}]",48.71818099999814,welcome,instructions,0,51,0.0-0.0-0.0,9cod37e9jp1934s,anecdotes,experiment2,prolific,4,2,anecdote_only,6,NA,NA,NA,NA,NA,11/01/2021 14:57:05
NA,206.66410799999824,id,survey-html-form,1,259,0.0-0.0-1.0-0.0,9cod37e9jp1934s,anecdotes,experiment2,prolific,4,2,anecdote_only,6,NA,NA,NA,"{""prolific"":""test12344774424139322952""}",NA,11/01/2021 14:57:05
NA,279.26000099999726,contact,survey-html-form,2,539,0.0-0.0-1.0-1.0,9cod37e9jp1934s,anecdotes,experiment2,prolific,4,2,anecdote_only,6,NA,NA,NA,"{""contact"":""no"",""address"":""test12349362745899187918""}",NA,11/01/2021 14:57:05
NA,693.2920870000031,demographics,survey-html-form,3,1234,0.0-0.0-1.0-2.0,9cod37e9jp1934s,anecdotes,experiment2,prolific,4,2,anecdote_only,6,NA,NA,NA,"{""sex"":""female"",""age"":""72"",""language"":""Greek"",""language_other"":"""",""business_edu"":""29"",""business_exp"":""72"",""current"":""no""}",no,11/01/2021 14:57:05
NA,212.73773400000073,instructions,survey-html-form,4,1448,0.0-0.0-2.0-0.0-0.0,9cod37e9jp1934s,anecdotes,experiment2,prolific,4,2,anecdote_only,6,NA,NA,NA,"{""instructions_test"":""34""}",NA,11/01/2021 14:57:05
NA,131.67647800000304,interstitial,survey-html-form,5,1582,0.0-0.0-2.0-15.0-0.0-0.0-0.0-0.0-0.0,9cod37e9jp1934s,anecdotes,experiment2,prolific,4,2,anecdote_only,6,NA,NA,NA,{},NA,11/01/2021 14:57:05
NA,NA,project_allocation,survey-html-form3,6,1766,0.0-0.0-2.0-15.0-0.0-0.0-0.0-0.0-1.0,9cod37e9jp1934s,anecdotes,experiment2,prolific,4,2,anecdote_only,6,NA,NA,NA,"{""anecdote_high_negative_Railmont_railway_902_94_Railway-lines-built_7_Number-of-seats-filled-by-paying-customers-at-peak-hour_2800_Time-before-the-train-carriages-will-need-to-be-serviced_17_Operation-type_intracity_target"":""53"",""anecdote_high_negative_Erectic_high-rise-construction_104_89_High-rises-built_11_Probability-that-the-builders-complete-construction-within-a-month-of-the-due-date_74_Number-of-tenant-expressions-of-interest_140_Primary-use_mixed office-retail_comparison"":""47""}",NA,11/01/2021 14:57:05
NA,280.7008959999994,follow_up,survey-html-form,7,2048,0.0-0.0-2.0-15.0-0.0-0.0-0.0-0.0-2.0,9cod37e9jp1934s,anecdotes,experiment2,prolific,4,2,anecdote_only,6,NA,NA,NA,"{""follow-up_anecdote_negative_high_rating_similarity"":""6"",""follow-up_anecdote_negative_high_rating_relevance-specific"":""0"",""follow-up_anecdote_negative_high_rating_relevance-general"":""0"",""follow-up_anecdote_negative_high_text_justify"":""""}",NA,11/01/2021 14:57:05
NA,114.96696399998973,interstitial,survey-html-form,8,2164,0.0-0.0-2.0-15.0-0.0-0.0-0.0-0.1-0.1,9cod37e9jp1934s,anecdotes,experiment2,prolific,4,2,anecdote_only,6,NA,NA,NA,{},NA,11/01/2021 14:57:05
NA,NA,project_allocation,survey-html-form3,9,2334,0.0-0.0-2.0-15.0-0.0-0.0-0.0-0.1-1.1,9cod37e9jp1934s,anecdotes,experiment2,prolific,4,2,anecdote_only,6,NA,NA,NA,"{""anecdote_high_positive_Pressbloom_national-newspaper_104_88_Newspapers-printed_45000_Number-of-weekly-advertisers_72_Ink-that-is-not-discarded-due-to-impurities_4500_Payment-model_advertising_target"":""47"",""anecdote_high_positive_Pharmacore_pharmaceutical_903_93_Pills-pressed_270000_Shelf-life_18_Probability-of-symptom-reduction-after-a-week_81_Drug-type_over-the-counter_comparison"":""53""}",NA,11/01/2021 14:57:05
NA,297.4453789999957,follow_up,survey-html-form,10,2633,0.0-0.0-2.0-15.0-0.0-0.0-0.0-0.1-2.1,9cod37e9jp1934s,anecdotes,experiment2,prolific,4,2,anecdote_only,6,NA,NA,NA,"{""follow-up_anecdote_positive_high_rating_similarity"":""2"",""follow-up_anecdote_positive_high_rating_relevance-specific"":""3"",""follow-up_anecdote_positive_high_rating_relevance-general"":""6"",""follow-up_anecdote_positive_high_text_justify"":""""}",NA,11/01/2021 14:57:05
NA,140.21111300000666,interstitial,survey-html-form,11,2774,0.0-0.0-2.0-15.0-0.0-0.0-0.0-0.2-0.2,9cod37e9jp1934s,anecdotes,experiment2,prolific,4,2,anecdote_only,6,NA,NA,NA,{},NA,11/01/2021 14:57:05
NA,NA,project_allocation,survey-html-form3,12,2929,0.0-0.0-2.0-15.0-0.0-0.0-0.0-0.2-1.2,9cod37e9jp1934s,anecdotes,experiment2,prolific,4,2,anecdote_only,6,NA,NA,NA,"{""anecdote_low_negative_Dinerly_restaurant-chain_904_94_Restaurants-established_6_Number-of-reservations-on-a-Saturday-night_70_Positive-reviews_28_Restaurant-type_fast food_target"":""36"",""anecdote_low_negative_Vital-Records_record-label_100_88_Record-projects-completed_6_Radio-listenership-nationally_1_Relevant-network-connections_9_Genre_rock_comparison"":""64""}",NA,11/01/2021 14:57:05
NA,287.1900770000052,follow_up,survey-html-form,13,3217,0.0-0.0-2.0-15.0-0.0-0.0-0.0-0.2-2.2,9cod37e9jp1934s,anecdotes,experiment2,prolific,4,2,anecdote_only,6,NA,NA,NA,"{""follow-up_anecdote_negative_low_rating_similarity"":""1"",""follow-up_anecdote_negative_low_rating_relevance-specific"":""2"",""follow-up_anecdote_negative_low_rating_relevance-general"":""2"",""follow-up_anecdote_negative_low_text_justify"":""""}",NA,11/01/2021 14:57:05
NA,114.71111499999142,interstitial,survey-html-form,14,3333,0.0-0.0-2.0-15.0-0.0-0.0-0.0-0.3-0.3,9cod37e9jp1934s,anecdotes,experiment2,prolific,4,2,anecdote_only,6,NA,NA,NA,{},NA,11/01/2021 14:57:05
NA,NA,project_allocation,survey-html-form3,15,3492,0.0-0.0-2.0-15.0-0.0-0.0-0.0-0.3-1.3,9cod37e9jp1934s,anecdotes,experiment2,prolific,4,2,anecdote_only,6,NA,NA,NA,"{""anecdote_low_positive_Cweb_software_102_90_Code-written_1600_Security-rating_96_Number-of-potential-customers-in-first-year_5_Target-users_enterprise_target"":""46"",""anecdote_low_positive_Refinera_oil-well_905_92_Oil-extracted_3200_Time-the-machinery-lasts-before-requiring-maintenance_11_Probability-of-finding-oil_88_Type-of-well_offshore_comparison"":""54""}",NA,11/01/2021 14:57:05
NA,295.9321200000031,follow_up,survey-html-form,16,3789,0.0-0.0-2.0-15.0-0.0-0.0-0.0-0.3-2.3,9cod37e9jp1934s,anecdotes,experiment2,prolific,4,2,anecdote_only,6,NA,NA,NA,"{""follow-up_anecdote_positive_low_rating_similarity"":""6"",""follow-up_anecdote_positive_low_rating_relevance-specific"":""3"",""follow-up_anecdote_positive_low_rating_relevance-general"":""0"",""follow-up_anecdote_positive_low_text_justify"":""""}",NA,11/01/2021 14:57:05
NA,126.04390499998908,interstitial,survey-html-form,17,3917,0.0-0.0-2.0-15.0-0.0-0.0-0.0-0.4-0.4,9cod37e9jp1934s,anecdotes,experiment2,prolific,4,2,anecdote_only,6,NA,NA,NA,{},NA,11/01/2021 14:57:05
NA,NA,project_allocation,survey-html-form3,18,4077,0.0-0.0-2.0-15.0-0.0-0.0-0.0-0.4-1.4,9cod37e9jp1934s,anecdotes,experiment2,prolific,4,2,anecdote_only,6,NA,NA,NA,"{""statistics-only_NA_NA_Microxy_microchip_902_94_Microchips-produced_4000_Usable-semiconductor-yield-after-testing_60_Compatible-devices-in-the-market_75_Type-of-chip-architecture_Reduced Instruction Set Computing_target"":""54"",""statistics-only_NA_NA_Logivia_shipping-logistics_103_87_Packages-shipped_800_Number-of-orders-that-do-not-spend-time-in-a-bottleneck_400_Average-accuracy-of-shipments_94_Shipping-type_parcel_comparison"":""46""}",NA,11/01/2021 14:57:05
NA,115.19318999999996,follow_up,survey-html-form,19,4193,0.0-0.0-2.0-15.0-0.0-0.0-0.0-0.4-2.4,9cod37e9jp1934s,anecdotes,experiment2,prolific,4,2,anecdote_only,6,NA,NA,NA,{},NA,11/01/2021 14:57:05
"[{""page_index"":0,""viewing_time"":53.37067400000706},{""page_index"":1,""viewing_time"":87.94142199999987}]",141.51932000000033,debrief,instructions,20,4335,0.0-0.0-3.0-0.0,9cod37e9jp1934s,anecdotes,experiment2,prolific,4,2,anecdote_only,6,NA,NA,NA,NA,NA,11/01/2021 14:57:05
