view_history,rt,stage,trial_type,trial_index,time_elapsed,internal_node_id,subject,thesis_project,experiment,sample,project_variation,anecdote_variation,anecdote_between,current_project_display_order,PROLIFIC_PID,STUDY_ID,SESSION_ID,responses,current_response,dateCreated
"[{""page_index"":0,""viewing_time"":56.644404000010695}]",56.9357300000064,welcome,instructions,0,58,0.0-0.0-0.0,4vgyqx6ez79w92z,anecdotes,experiment2,prolific,1,1,combined,6,NA,NA,NA,NA,NA,03/03/2021 14:31:51
NA,277.7116890000002,id,survey-html-form,1,337,0.0-0.0-1.0-0.0,4vgyqx6ez79w92z,anecdotes,experiment2,prolific,1,1,combined,6,NA,NA,NA,"{""prolific"":""test12344199282815683771""}",NA,03/03/2021 14:31:51
NA,290.2261199999998,contact,survey-html-form,2,628,0.0-0.0-1.0-1.0,4vgyqx6ez79w92z,anecdotes,experiment2,prolific,1,1,combined,6,NA,NA,NA,"{""contact"":""yes"",""address"":""test12348468582692571134""}",NA,03/03/2021 14:31:51
NA,719.019270000004,demographics,survey-html-form,3,1348,0.0-0.0-1.0-2.0,4vgyqx6ez79w92z,anecdotes,experiment2,prolific,1,1,combined,6,NA,NA,NA,"{""sex"":""female"",""age"":""67"",""language"":""Italian"",""language_other"":"""",""business_edu"":""48"",""business_exp"":""22"",""current"":""no""}",no,03/03/2021 14:31:51
NA,230.75335200000768,instructions,survey-html-form,4,1580,0.0-0.0-2.0-0.0-0.0,4vgyqx6ez79w92z,anecdotes,experiment2,prolific,1,1,combined,6,NA,NA,NA,"{""instructions_test"":""14""}",NA,03/03/2021 14:31:51
NA,117.40985800000203,interstitial,survey-html-form,5,1698,0.0-0.0-2.0-2.0-0.0-0.0-0.0-0.0-0.0,4vgyqx6ez79w92z,anecdotes,experiment2,prolific,1,1,combined,6,NA,NA,NA,{},NA,03/03/2021 14:31:51
NA,NA,project_allocation,survey-html-form3,6,1870,0.0-0.0-2.0-2.0-0.0-0.0-0.0-0.0-1.0,4vgyqx6ez79w92z,anecdotes,experiment2,prolific,1,1,combined,6,NA,NA,NA,"{""anecdote_high_negative_Savoro_restaurant-chain_903_93_Restaurants-established_9_Number-of-reservations-on-a-Saturday-night_100_Positive-reviews_40_Restaurant-type_fast-food_target"":""61"",""anecdote_high_negative_Poppin_record-label_102_86_Record-projects-completed_8_Radio-listenership-nationally_2_Relevant-network-connections_13_Genre_rock_comparison"":""39""}",NA,03/03/2021 14:31:51
NA,264.1195340000022,follow_up,survey-html-form,7,2136,0.0-0.0-2.0-2.0-0.0-0.0-0.0-0.0-2.0,4vgyqx6ez79w92z,anecdotes,experiment2,prolific,1,1,combined,6,NA,NA,NA,"{""follow-up_anecdote_negative_high_rating_similarity-rating"":""3"",""follow-up_anecdote_negative_high_rating_relevance-specific-rating"":""2"",""follow-up_anecdote_negative_high_rating_relevance-general-rating"":""4"",""follow-up_anecdote_negative_high_text_justify"":""""}",NA,03/03/2021 14:31:51
NA,114.75260299999991,interstitial,survey-html-form,8,2251,0.0-0.0-2.0-2.0-0.0-0.0-0.0-0.1-0.1,4vgyqx6ez79w92z,anecdotes,experiment2,prolific,1,1,combined,6,NA,NA,NA,{},NA,03/03/2021 14:31:51
NA,NA,project_allocation,survey-html-form3,9,2416,0.0-0.0-2.0-2.0-0.0-0.0-0.0-0.1-1.1,4vgyqx6ez79w92z,anecdotes,experiment2,prolific,1,1,combined,6,NA,NA,NA,"{""anecdote_high_positive_Altchip_microchip_105_90_Microchips-produced_4000_Usable-semiconductor-yield-after-testing_60_Compatible-devices-in-the-market_75_Type-of-chip-architecture_Reduced-Instruction-Set-Computing_target"":""61"",""anecdote_high_positive_Solgistics_shipping-logistics_905_93_Packages-shipped_800_Number-of-orders-that-do-not-spend-time-in-a-bottleneck_400_Average-accuracy-of-shipments_90_Shipping-type_parcel_comparison"":""39""}",NA,03/03/2021 14:31:51
NA,328.9066430000107,follow_up,survey-html-form,10,2745,0.0-0.0-2.0-2.0-0.0-0.0-0.0-0.1-2.1,4vgyqx6ez79w92z,anecdotes,experiment2,prolific,1,1,combined,6,NA,NA,NA,"{""follow-up_anecdote_positive_high_rating_similarity-rating"":""1"",""follow-up_anecdote_positive_high_rating_relevance-specific-rating"":""2"",""follow-up_anecdote_positive_high_rating_relevance-general-rating"":""6"",""follow-up_anecdote_positive_high_text_justify"":""""}",NA,03/03/2021 14:31:51
NA,114.25777200000175,interstitial,survey-html-form,11,2861,0.0-0.0-2.0-2.0-0.0-0.0-0.0-0.2-0.2,4vgyqx6ez79w92z,anecdotes,experiment2,prolific,1,1,combined,6,NA,NA,NA,{},NA,03/03/2021 14:31:51
NA,NA,project_allocation,survey-html-form3,12,3021,0.0-0.0-2.0-2.0-0.0-0.0-0.0-0.2-1.2,4vgyqx6ez79w92z,anecdotes,experiment2,prolific,1,1,combined,6,NA,NA,NA,"{""anecdote_low_negative_Codeck_software_901_91_Code-written_1000_Security-rating_85_Number-of-potential-customers-in-first-year_3_Target-users_ordinary-consumers_target"":""51"",""anecdote_low_negative_Enfuel_oil-well_100_90_Oil-extracted_2000_Time-the-machinery-lasts-before-requiring-maintenance_7_Probability-of-finding-oil_80_Type-of-well_onshore_comparison"":""49""}",NA,03/03/2021 14:31:51
NA,260.6825689999964,follow_up,survey-html-form,13,3283,0.0-0.0-2.0-2.0-0.0-0.0-0.0-0.2-2.2,4vgyqx6ez79w92z,anecdotes,experiment2,prolific,1,1,combined,6,NA,NA,NA,"{""follow-up_anecdote_negative_low_rating_similarity-rating"":""5"",""follow-up_anecdote_negative_low_rating_relevance-specific-rating"":""4"",""follow-up_anecdote_negative_low_rating_relevance-general-rating"":""5"",""follow-up_anecdote_negative_low_text_justify"":""""}",NA,03/03/2021 14:31:51
NA,115.25046699999575,interstitial,survey-html-form,14,3399,0.0-0.0-2.0-2.0-0.0-0.0-0.0-0.3-0.3,4vgyqx6ez79w92z,anecdotes,experiment2,prolific,1,1,combined,6,NA,NA,NA,{},NA,03/03/2021 14:31:51
NA,NA,project_allocation,survey-html-form3,15,3638,0.0-0.0-2.0-2.0-0.0-0.0-0.0-0.3-1.3,4vgyqx6ez79w92z,anecdotes,experiment2,prolific,1,1,combined,6,NA,NA,NA,"{""anecdote_low_positive_Refit_high-rise-construction_900_95_High-rises-built_8_Probability-that-the-builders-complete-construction-within-a-month-of-the-due-date_70_Number-of-tenant-expressions-of-interest_100_Primary-use_apartment_comparison"":""63"",""anecdote_low_positive_Rural-Pass_railway_102_87_Railway-lines-built_5_Number-of-seats-filled-by-paying-customers-at-peak-hour_2000_Time-before-the-train-carriages-will-need-to-be-serviced_12_Operation-type_intercity_target"":""37""}",NA,03/03/2021 14:31:51
NA,298.3607519999937,follow_up,survey-html-form,16,3937,0.0-0.0-2.0-2.0-0.0-0.0-0.0-0.3-2.3,4vgyqx6ez79w92z,anecdotes,experiment2,prolific,1,1,combined,6,NA,NA,NA,"{""follow-up_anecdote_positive_low_rating_similarity-rating"":""2"",""follow-up_anecdote_positive_low_rating_relevance-specific-rating"":""5"",""follow-up_anecdote_positive_low_rating_relevance-general-rating"":""1"",""follow-up_anecdote_positive_low_text_justify"":""""}",NA,03/03/2021 14:31:51
NA,131.829308999997,interstitial,survey-html-form,17,4070,0.0-0.0-2.0-2.0-0.0-0.0-0.0-0.4-0.4,4vgyqx6ez79w92z,anecdotes,experiment2,prolific,1,1,combined,6,NA,NA,NA,{},NA,03/03/2021 14:31:51
NA,NA,project_allocation,survey-html-form3,18,4235,0.0-0.0-2.0-2.0-0.0-0.0-0.0-0.4-1.4,4vgyqx6ez79w92z,anecdotes,experiment2,prolific,1,1,combined,6,NA,NA,NA,"{""statistics-only_NA_NA_Grown-Media_national-newspaper_904_95_Newspapers-printed_50000_Number-of-weekly-advertisers_80_Ink-that-is-not-discarded-due-to-impurities_5000_Payment-model_subscription_target"":""45"",""statistics-only_NA_NA_Healthgenic_pharmaceutical_102_90_Pills-pressed_300000_Shelf-life_20_Probability-of-symptom-reduction-after-a-week_90_Drug-type_prescription-only_comparison"":""55""}",NA,03/03/2021 14:31:51
NA,162.86824499999784,follow_up,survey-html-form,19,4398,0.0-0.0-2.0-2.0-0.0-0.0-0.0-0.4-2.4,4vgyqx6ez79w92z,anecdotes,experiment2,prolific,1,1,combined,6,NA,NA,NA,{},NA,03/03/2021 14:31:51
"[{""page_index"":0,""viewing_time"":65.57037899999341},{""page_index"":1,""viewing_time"":63.656019999995806}]",129.37984499998765,debrief,instructions,20,4528,0.0-0.0-3.0-0.0,4vgyqx6ez79w92z,anecdotes,experiment2,prolific,1,1,combined,6,NA,NA,NA,NA,NA,03/03/2021 14:31:51
