view_history,rt,stage,trial_type,trial_index,time_elapsed,internal_node_id,subject,thesis_project,experiment,sample,project_variation,anecdote_variation,anecdote_between,current_project_display_order,PROLIFIC_PID,STUDY_ID,SESSION_ID,responses,current_response,dateCreated
"[{""page_index"":0,""viewing_time"":50.09620100000234}]",50.34074000000999,welcome,instructions,0,51,0.0-0.0-0.0,o1pjkbbom2ez2mq,anecdotes,experiment2,prolific,3,2,anecdote_only,6,NA,NA,NA,NA,NA,13/01/2021 14:54:24
NA,214.3534319999958,id,survey-html-form,1,267,0.0-0.0-1.0-0.0,o1pjkbbom2ez2mq,anecdotes,experiment2,prolific,3,2,anecdote_only,6,NA,NA,NA,"{""prolific"":""test12342537617773996564""}",NA,13/01/2021 14:54:24
NA,392.1715900000038,contact,survey-html-form,2,660,0.0-0.0-1.0-1.0,o1pjkbbom2ez2mq,anecdotes,experiment2,prolific,3,2,anecdote_only,6,NA,NA,NA,"{""contact"":""no"",""address"":""test12342946541437938895""}",NA,13/01/2021 14:54:24
NA,891.7861159999916,demographics,survey-html-form,3,1554,0.0-0.0-1.0-2.0,o1pjkbbom2ez2mq,anecdotes,experiment2,prolific,3,2,anecdote_only,6,NA,NA,NA,"{""sex"":""female"",""age"":""93"",""language"":""Hebrew"",""language_other"":"""",""business_edu"":""27"",""business_exp"":""10"",""current"":""yes""}",yes,13/01/2021 14:54:24
NA,1532.9150149999864,business_information,survey-html-form,4,3090,0.0-0.0-1.0-3.0-0.0,o1pjkbbom2ez2mq,anecdotes,experiment2,prolific,3,2,anecdote_only,6,NA,NA,NA,"{""company_name"":""test12341486929521545616"",""sector"":""Retail, Wholesale, Restaurants"",""sector_other"":"""",""employees"":""170050"",""revenue"":""194464"",""role_company"":""CEO"",""role_company_other"":"""",""role_allocation"":""Decide on allocations for business unit or division"",""role_allocation_other"":"""",""budget"":""51055""}",NA,13/01/2021 14:54:24
NA,256.1651780000034,instructions,survey-html-form,5,3347,0.0-0.0-2.0-0.0-0.0,o1pjkbbom2ez2mq,anecdotes,experiment2,prolific,3,2,anecdote_only,6,NA,NA,NA,"{""instructions_test"":""39""}",NA,13/01/2021 14:54:24
NA,159.14586099999906,interstitial,survey-html-form,6,3509,0.0-0.0-2.0-11.0-0.0-0.0-0.0-0.0-0.0,o1pjkbbom2ez2mq,anecdotes,experiment2,prolific,3,2,anecdote_only,6,NA,NA,NA,{},NA,13/01/2021 14:54:24
NA,NA,project_allocation,survey-html-form3,7,3751,0.0-0.0-2.0-11.0-0.0-0.0-0.0-0.0-1.0,o1pjkbbom2ez2mq,anecdotes,experiment2,prolific,3,2,anecdote_only,6,NA,NA,NA,"{""anecdote_high_negative_Refinera_oil-well_102_90_Oil-extracted_2800_Time-the-machinery-lasts-before-requiring-maintenance_10_Probability-of-finding-oil_84_Type-of-well_offshore_comparison"":""49"",""anecdote_high_negative_Cweb_software_905_92_Code-written_1400_Security-rating_84_Number-of-potential-customers-in-first-year_4_Target-users_enterprise_target"":""51""}",NA,13/01/2021 14:54:24
NA,350.5380459999974,follow_up,survey-html-form,8,4103,0.0-0.0-2.0-11.0-0.0-0.0-0.0-0.0-2.0,o1pjkbbom2ez2mq,anecdotes,experiment2,prolific,3,2,anecdote_only,6,NA,NA,NA,"{""follow-up_anecdote_negative_high_rating_similarity"":""0"",""follow-up_anecdote_negative_high_rating_relevance-specific"":""3"",""follow-up_anecdote_negative_high_rating_relevance-general"":""6"",""follow-up_anecdote_negative_high_text_justify"":""""}",NA,13/01/2021 14:54:24
NA,152.84962399999858,interstitial,survey-html-form,9,4257,0.0-0.0-2.0-11.0-0.0-0.0-0.0-0.1-0.1,o1pjkbbom2ez2mq,anecdotes,experiment2,prolific,3,2,anecdote_only,6,NA,NA,NA,{},NA,13/01/2021 14:54:24
NA,NA,project_allocation,survey-html-form3,10,4455,0.0-0.0-2.0-11.0-0.0-0.0-0.0-0.1-1.1,o1pjkbbom2ez2mq,anecdotes,experiment2,prolific,3,2,anecdote_only,6,NA,NA,NA,"{""anecdote_high_positive_Railmont_railway_104_89_Railway-lines-built_4_Number-of-seats-filled-by-paying-customers-at-peak-hour_1800_Time-before-the-train-carriages-will-need-to-be-serviced_11_Operation-type_intracity_target"":""54"",""anecdote_high_positive_Erectic_high-rise-construction_902_94_High-rises-built_7_Probability-that-the-builders-complete-construction-within-a-month-of-the-due-date_63_Number-of-tenant-expressions-of-interest_90_Primary-use_mixed office-retail_comparison"":""46""}",NA,13/01/2021 14:54:24
NA,381.3553589999974,follow_up,survey-html-form,11,4838,0.0-0.0-2.0-11.0-0.0-0.0-0.0-0.1-2.1,o1pjkbbom2ez2mq,anecdotes,experiment2,prolific,3,2,anecdote_only,6,NA,NA,NA,"{""follow-up_anecdote_positive_high_rating_similarity"":""6"",""follow-up_anecdote_positive_high_rating_relevance-specific"":""5"",""follow-up_anecdote_positive_high_rating_relevance-general"":""3"",""follow-up_anecdote_positive_high_text_justify"":""""}",NA,13/01/2021 14:54:24
NA,141.29510700000537,interstitial,survey-html-form,12,4980,0.0-0.0-2.0-11.0-0.0-0.0-0.0-0.2-0.2,o1pjkbbom2ez2mq,anecdotes,experiment2,prolific,3,2,anecdote_only,6,NA,NA,NA,{},NA,13/01/2021 14:54:24
NA,NA,project_allocation,survey-html-form3,13,5223,0.0-0.0-2.0-11.0-0.0-0.0-0.0-0.2-1.2,o1pjkbbom2ez2mq,anecdotes,experiment2,prolific,3,2,anecdote_only,6,NA,NA,NA,"{""anecdote_low_negative_Microxy_microchip_902_94_Microchips-produced_2800_Usable-semiconductor-yield-after-testing_48_Compatible-devices-in-the-market_60_Type-of-chip-architecture_Reduced Instruction Set Computing_target"":""51"",""anecdote_low_negative_Logivia_shipping-logistics_103_87_Packages-shipped_560_Number-of-orders-that-do-not-spend-time-in-a-bottleneck_280_Average-accuracy-of-shipments_75_Shipping-type_parcel_comparison"":""49""}",NA,13/01/2021 14:54:24
NA,312.2526730000036,follow_up,survey-html-form,14,5537,0.0-0.0-2.0-11.0-0.0-0.0-0.0-0.2-2.2,o1pjkbbom2ez2mq,anecdotes,experiment2,prolific,3,2,anecdote_only,6,NA,NA,NA,"{""follow-up_anecdote_negative_low_rating_similarity"":""0"",""follow-up_anecdote_negative_low_rating_relevance-specific"":""1"",""follow-up_anecdote_negative_low_rating_relevance-general"":""1"",""follow-up_anecdote_negative_low_text_justify"":""""}",NA,13/01/2021 14:54:24
NA,146.60520300000735,interstitial,survey-html-form,15,5685,0.0-0.0-2.0-11.0-0.0-0.0-0.0-0.3-0.3,o1pjkbbom2ez2mq,anecdotes,experiment2,prolific,3,2,anecdote_only,6,NA,NA,NA,{},NA,13/01/2021 14:54:24
NA,NA,project_allocation,survey-html-form3,16,5931,0.0-0.0-2.0-11.0-0.0-0.0-0.0-0.3-1.3,o1pjkbbom2ez2mq,anecdotes,experiment2,prolific,3,2,anecdote_only,6,NA,NA,NA,"{""anecdote_low_positive_Pressbloom_national-newspaper_104_88_Newspapers-printed_80000_Number-of-weekly-advertisers_128_Ink-that-is-not-discarded-due-to-impurities_8000_Payment-model_advertising_target"":""51"",""anecdote_low_positive_Pharmacore_pharmaceutical_903_93_Pills-pressed_480000_Shelf-life_32_Probability-of-symptom-reduction-after-a-week_99_Drug-type_over-the-counter_comparison"":""49""}",NA,13/01/2021 14:54:24
NA,344.3728039999878,follow_up,survey-html-form,17,6277,0.0-0.0-2.0-11.0-0.0-0.0-0.0-0.3-2.3,o1pjkbbom2ez2mq,anecdotes,experiment2,prolific,3,2,anecdote_only,6,NA,NA,NA,"{""follow-up_anecdote_positive_low_rating_similarity"":""6"",""follow-up_anecdote_positive_low_rating_relevance-specific"":""4"",""follow-up_anecdote_positive_low_rating_relevance-general"":""4"",""follow-up_anecdote_positive_low_text_justify"":""""}",NA,13/01/2021 14:54:24
NA,180.02890700000717,interstitial,survey-html-form,18,6458,0.0-0.0-2.0-11.0-0.0-0.0-0.0-0.4-0.4,o1pjkbbom2ez2mq,anecdotes,experiment2,prolific,3,2,anecdote_only,6,NA,NA,NA,{},NA,13/01/2021 14:54:24
NA,NA,project_allocation,survey-html-form3,19,6674,0.0-0.0-2.0-11.0-0.0-0.0-0.0-0.4-1.4,o1pjkbbom2ez2mq,anecdotes,experiment2,prolific,3,2,anecdote_only,6,NA,NA,NA,"{""statistics-only_NA_NA_Dinerly_restaurant-chain_904_94_Restaurants-established_9_Number-of-reservations-on-a-Saturday-night_100_Positive-reviews_40_Restaurant-type_fast food_target"":""59"",""statistics-only_NA_NA_Vital-Records_record-label_100_88_Record-projects-completed_8_Radio-listenership-nationally_2_Relevant-network-connections_13_Genre_rock_comparison"":""41""}",NA,13/01/2021 14:54:24
NA,146.64332499998545,follow_up,survey-html-form,20,6822,0.0-0.0-2.0-11.0-0.0-0.0-0.0-0.4-2.4,o1pjkbbom2ez2mq,anecdotes,experiment2,prolific,3,2,anecdote_only,6,NA,NA,NA,{},NA,13/01/2021 14:54:24
"[{""page_index"":0,""viewing_time"":61.80370300000959},{""page_index"":1,""viewing_time"":65.15543800000523}]",127.19303000000127,debrief,instructions,21,6950,0.0-0.0-3.0-0.0,o1pjkbbom2ez2mq,anecdotes,experiment2,prolific,3,2,anecdote_only,6,NA,NA,NA,NA,NA,13/01/2021 14:54:24
