view_history,rt,stage,trial_type,trial_index,time_elapsed,internal_node_id,subject,thesis_project,experiment,sample,project_variation,anecdote_variation,anecdote_between,current_project_display_order,PROLIFIC_PID,STUDY_ID,SESSION_ID,responses,current_response,dateCreated
"[{""page_index"":0,""viewing_time"":45.02528700000141}]",45.357074999998304,welcome,instructions,0,47,0.0-0.0-0.0,4gn868kft1bzqaf,anecdotes,experiment2,prolific,5,2,anecdote_only,6,NA,NA,NA,NA,NA,03/03/2021 14:31:15
NA,223.45212599999797,id,survey-html-form,1,272,0.0-0.0-1.0-0.0,4gn868kft1bzqaf,anecdotes,experiment2,prolific,5,2,anecdote_only,6,NA,NA,NA,"{""prolific"":""test12342236654446257397""}",NA,03/03/2021 14:31:15
NA,277.3969439999959,contact,survey-html-form,2,550,0.0-0.0-1.0-1.0,4gn868kft1bzqaf,anecdotes,experiment2,prolific,5,2,anecdote_only,6,NA,NA,NA,"{""contact"":""yes"",""address"":""test12346138267852237395""}",NA,03/03/2021 14:31:15
NA,754.9895590000019,demographics,survey-html-form,3,1307,0.0-0.0-1.0-2.0,4gn868kft1bzqaf,anecdotes,experiment2,prolific,5,2,anecdote_only,6,NA,NA,NA,"{""sex"":""female"",""age"":""90"",""language"":""Other"",""language_other"":""test12349498498299157684"",""business_edu"":""2"",""business_exp"":""82"",""current"":""no""}",no,03/03/2021 14:31:15
NA,216.30918199999633,instructions,survey-html-form,4,1524,0.0-0.0-2.0-0.0-0.0,4gn868kft1bzqaf,anecdotes,experiment2,prolific,5,2,anecdote_only,6,NA,NA,NA,"{""instructions_test"":""52""}",NA,03/03/2021 14:31:15
NA,148.42172099999812,interstitial,survey-html-form,5,1675,0.0-0.0-2.0-19.0-0.0-0.0-0.0-0.0-0.0,4gn868kft1bzqaf,anecdotes,experiment2,prolific,5,2,anecdote_only,6,NA,NA,NA,{},NA,03/03/2021 14:31:15
NA,NA,project_allocation,survey-html-form3,6,1916,0.0-0.0-2.0-19.0-0.0-0.0-0.0-0.0-1.0,4gn868kft1bzqaf,anecdotes,experiment2,prolific,5,2,anecdote_only,6,NA,NA,NA,"{""anecdote_high_negative_Pressbloom_national-newspaper_903_93_Newspapers-printed_40000_Number-of-weekly-advertisers_64_Ink-that-is-not-discarded-due-to-impurities_4000_Payment-model_advertising_target"":""45"",""anecdote_high_negative_Pharmacore_pharmaceutical_104_88_Pills-pressed_240000_Shelf-life_16_Probability-of-symptom-reduction-after-a-week_86_Drug-type_over-the-counter_comparison"":""55""}",NA,03/03/2021 14:31:15
NA,260.5221979999965,follow_up,survey-html-form,7,2178,0.0-0.0-2.0-19.0-0.0-0.0-0.0-0.0-2.0,4gn868kft1bzqaf,anecdotes,experiment2,prolific,5,2,anecdote_only,6,NA,NA,NA,"{""follow-up_anecdote_negative_high_rating_similarity-rating"":""6"",""follow-up_anecdote_negative_high_rating_relevance-specific-rating"":""1"",""follow-up_anecdote_negative_high_rating_relevance-general-rating"":""6"",""follow-up_anecdote_negative_high_text_justify"":""""}",NA,03/03/2021 14:31:15
NA,114.4532879999997,interstitial,survey-html-form,8,2293,0.0-0.0-2.0-19.0-0.0-0.0-0.0-0.1-0.1,4gn868kft1bzqaf,anecdotes,experiment2,prolific,5,2,anecdote_only,6,NA,NA,NA,{},NA,03/03/2021 14:31:15
NA,NA,project_allocation,survey-html-form3,9,2453,0.0-0.0-2.0-19.0-0.0-0.0-0.0-0.1-1.1,4gn868kft1bzqaf,anecdotes,experiment2,prolific,5,2,anecdote_only,6,NA,NA,NA,"{""anecdote_high_positive_Vital-Records_record-label_904_94_Record-projects-completed_10_Radio-listenership-nationally_2_Relevant-network-connections_16_Genre_rock_comparison"":""42"",""anecdote_high_positive_Dinerly_restaurant-chain_100_88_Restaurants-established_11_Number-of-reservations-on-a-Saturday-night_120_Positive-reviews_48_Restaurant-type_fast-food_target"":""58""}",NA,03/03/2021 14:31:15
NA,357.3413489999948,follow_up,survey-html-form,10,2812,0.0-0.0-2.0-19.0-0.0-0.0-0.0-0.1-2.1,4gn868kft1bzqaf,anecdotes,experiment2,prolific,5,2,anecdote_only,6,NA,NA,NA,"{""follow-up_anecdote_positive_high_rating_similarity-rating"":""1"",""follow-up_anecdote_positive_high_rating_relevance-specific-rating"":""3"",""follow-up_anecdote_positive_high_rating_relevance-general-rating"":""2"",""follow-up_anecdote_positive_high_text_justify"":""""}",NA,03/03/2021 14:31:15
NA,147.8579249999966,interstitial,survey-html-form,11,2961,0.0-0.0-2.0-19.0-0.0-0.0-0.0-0.2-0.2,4gn868kft1bzqaf,anecdotes,experiment2,prolific,5,2,anecdote_only,6,NA,NA,NA,{},NA,03/03/2021 14:31:15
NA,NA,project_allocation,survey-html-form3,12,3171,0.0-0.0-2.0-19.0-0.0-0.0-0.0-0.2-1.2,4gn868kft1bzqaf,anecdotes,experiment2,prolific,5,2,anecdote_only,6,NA,NA,NA,"{""anecdote_low_negative_Erectic_high-rise-construction_104_89_High-rises-built_5_Probability-that-the-builders-complete-construction-within-a-month-of-the-due-date_63_Number-of-tenant-expressions-of-interest_60_Primary-use_mixed-office-retail_comparison"":""53"",""anecdote_low_negative_Railmont_railway_902_94_Railway-lines-built_3_Number-of-seats-filled-by-paying-customers-at-peak-hour_1200_Time-before-the-train-carriages-will-need-to-be-serviced_7_Operation-type_intracity_target"":""47""}",NA,03/03/2021 14:31:15
NA,249.62246700000196,follow_up,survey-html-form,13,3422,0.0-0.0-2.0-19.0-0.0-0.0-0.0-0.2-2.2,4gn868kft1bzqaf,anecdotes,experiment2,prolific,5,2,anecdote_only,6,NA,NA,NA,"{""follow-up_anecdote_negative_low_rating_similarity-rating"":""3"",""follow-up_anecdote_negative_low_rating_relevance-specific-rating"":""6"",""follow-up_anecdote_negative_low_rating_relevance-general-rating"":""2"",""follow-up_anecdote_negative_low_text_justify"":""""}",NA,03/03/2021 14:31:15
NA,139.6090010000039,interstitial,survey-html-form,14,3562,0.0-0.0-2.0-19.0-0.0-0.0-0.0-0.3-0.3,4gn868kft1bzqaf,anecdotes,experiment2,prolific,5,2,anecdote_only,6,NA,NA,NA,{},NA,03/03/2021 14:31:15
NA,NA,project_allocation,survey-html-form3,15,3757,0.0-0.0-2.0-19.0-0.0-0.0-0.0-0.3-1.3,4gn868kft1bzqaf,anecdotes,experiment2,prolific,5,2,anecdote_only,6,NA,NA,NA,"{""anecdote_low_positive_Microxy_microchip_103_87_Microchips-produced_5600_Usable-semiconductor-yield-after-testing_66_Compatible-devices-in-the-market_82_Type-of-chip-architecture_Reduced-Instruction-Set-Computing_target"":""57"",""anecdote_low_positive_Logivia_shipping-logistics_902_94_Packages-shipped_1120_Number-of-orders-that-do-not-spend-time-in-a-bottleneck_560_Average-accuracy-of-shipments_99_Shipping-type_parcel_comparison"":""43""}",NA,03/03/2021 14:31:15
NA,378.2777309999974,follow_up,survey-html-form,16,4137,0.0-0.0-2.0-19.0-0.0-0.0-0.0-0.3-2.3,4gn868kft1bzqaf,anecdotes,experiment2,prolific,5,2,anecdote_only,6,NA,NA,NA,"{""follow-up_anecdote_positive_low_rating_similarity-rating"":""7"",""follow-up_anecdote_positive_low_rating_relevance-specific-rating"":""6"",""follow-up_anecdote_positive_low_rating_relevance-general-rating"":""3"",""follow-up_anecdote_positive_low_text_justify"":""""}",NA,03/03/2021 14:31:15
NA,153.83885900000405,interstitial,survey-html-form,17,4292,0.0-0.0-2.0-19.0-0.0-0.0-0.0-0.4-0.4,4gn868kft1bzqaf,anecdotes,experiment2,prolific,5,2,anecdote_only,6,NA,NA,NA,{},NA,03/03/2021 14:31:15
NA,NA,project_allocation,survey-html-form3,18,4508,0.0-0.0-2.0-19.0-0.0-0.0-0.0-0.4-1.4,4gn868kft1bzqaf,anecdotes,experiment2,prolific,5,2,anecdote_only,6,NA,NA,NA,"{""statistics-only_NA_NA_Cweb_software_905_92_Code-written_1000_Security-rating_85_Number-of-potential-customers-in-first-year_3_Target-users_enterprise_target"":""66"",""statistics-only_NA_NA_Refinera_oil-well_102_90_Oil-extracted_2000_Time-the-machinery-lasts-before-requiring-maintenance_7_Probability-of-finding-oil_80_Type-of-well_offshore_comparison"":""34""}",NA,03/03/2021 14:31:15
NA,150.77252099999987,follow_up,survey-html-form,19,4660,0.0-0.0-2.0-19.0-0.0-0.0-0.0-0.4-2.4,4gn868kft1bzqaf,anecdotes,experiment2,prolific,5,2,anecdote_only,6,NA,NA,NA,{},NA,03/03/2021 14:31:15
"[{""page_index"":0,""viewing_time"":63.61115300000347},{""page_index"":1,""viewing_time"":50.282320999996955}]",114.04668200000106,debrief,instructions,20,4774,0.0-0.0-3.0-0.0,4gn868kft1bzqaf,anecdotes,experiment2,prolific,5,2,anecdote_only,6,NA,NA,NA,NA,NA,03/03/2021 14:31:15
