view_history,rt,stage,trial_type,trial_index,time_elapsed,internal_node_id,subject,thesis_project,experiment,sample,project_variation,anecdote_variation,anecdote_between,current_project_display_order,PROLIFIC_PID,STUDY_ID,SESSION_ID,responses,current_response,dateCreated
"[{""page_index"":0,""viewing_time"":42.2875649999952}]",42.74993399999971,welcome,instructions,0,44,0.0-0.0-0.0,xsy1odd34u5zuyk,anecdotes,experiment2,prolific,1,1,anecdote_only,6,NA,NA,NA,NA,NA,03/03/2021 14:31:10
NA,215.2317270000026,id,survey-html-form,1,261,0.0-0.0-1.0-0.0,xsy1odd34u5zuyk,anecdotes,experiment2,prolific,1,1,anecdote_only,6,NA,NA,NA,"{""prolific"":""test12344793874424369676""}",NA,03/03/2021 14:31:10
NA,348.53159200000044,contact,survey-html-form,2,610,0.0-0.0-1.0-1.0,xsy1odd34u5zuyk,anecdotes,experiment2,prolific,1,1,anecdote_only,6,NA,NA,NA,"{""contact"":""yes"",""address"":""test12349227755396629583""}",NA,03/03/2021 14:31:10
NA,905.8763510000035,demographics,survey-html-form,3,1519,0.0-0.0-1.0-2.0,xsy1odd34u5zuyk,anecdotes,experiment2,prolific,1,1,anecdote_only,6,NA,NA,NA,"{""sex"":""female"",""age"":""62"",""language"":""Spanish"",""language_other"":"""",""business_edu"":""1"",""business_exp"":""64"",""current"":""yes""}",yes,03/03/2021 14:31:10
NA,1538.9801720000023,business_information,survey-html-form,4,3060,0.0-0.0-1.0-3.0-0.0,xsy1odd34u5zuyk,anecdotes,experiment2,prolific,1,1,anecdote_only,6,NA,NA,NA,"{""company_name"":""test12345845866466445655"",""sector"":""Asset Management - Brokers, Fund Mgmt, Stock Exchange"",""sector_other"":"""",""employees"":""2347131"",""revenue"":""312399"",""role_company"":""CSO"",""role_company_other"":"""",""role_allocation"":""Provide information and analysis for the decision-makers at the company"",""role_allocation_other"":"""",""budget"":""489356""}",NA,03/03/2021 14:31:10
NA,182.07565999999542,instructions,survey-html-form,5,3243,0.0-0.0-2.0-0.0-0.0,xsy1odd34u5zuyk,anecdotes,experiment2,prolific,1,1,anecdote_only,6,NA,NA,NA,"{""instructions_test"":""78""}",NA,03/03/2021 14:31:10
NA,131.18181099999765,interstitial,survey-html-form,6,3375,0.0-0.0-2.0-1.0-0.0-0.0-0.0-0.0-0.0,xsy1odd34u5zuyk,anecdotes,experiment2,prolific,1,1,anecdote_only,6,NA,NA,NA,{},NA,03/03/2021 14:31:10
NA,NA,project_allocation,survey-html-form3,7,3612,0.0-0.0-2.0-1.0-0.0-0.0-0.0-0.0-1.0,xsy1odd34u5zuyk,anecdotes,experiment2,prolific,1,1,anecdote_only,6,NA,NA,NA,"{""anecdote_high_negative_Savoro_restaurant-chain_904_94_Restaurants-established_9_Number-of-reservations-on-a-Saturday-night_100_Positive-reviews_40_Restaurant-type_fast-food_target"":""46"",""anecdote_high_negative_Poppin_record-label_100_88_Record-projects-completed_8_Radio-listenership-nationally_2_Relevant-network-connections_13_Genre_rock_comparison"":""54""}",NA,03/03/2021 14:31:10
NA,389.41009500000246,follow_up,survey-html-form,8,4003,0.0-0.0-2.0-1.0-0.0-0.0-0.0-0.0-2.0,xsy1odd34u5zuyk,anecdotes,experiment2,prolific,1,1,anecdote_only,6,NA,NA,NA,"{""follow-up_anecdote_negative_high_rating_similarity-rating"":""3"",""follow-up_anecdote_negative_high_rating_relevance-specific-rating"":""6"",""follow-up_anecdote_negative_high_rating_relevance-general-rating"":""1"",""follow-up_anecdote_negative_high_text_justify"":""""}",NA,03/03/2021 14:31:10
NA,159.83665900000005,interstitial,survey-html-form,9,4165,0.0-0.0-2.0-1.0-0.0-0.0-0.0-0.1-0.1,xsy1odd34u5zuyk,anecdotes,experiment2,prolific,1,1,anecdote_only,6,NA,NA,NA,{},NA,03/03/2021 14:31:10
NA,NA,project_allocation,survey-html-form3,10,4427,0.0-0.0-2.0-1.0-0.0-0.0-0.0-0.1-1.1,xsy1odd34u5zuyk,anecdotes,experiment2,prolific,1,1,anecdote_only,6,NA,NA,NA,"{""anecdote_high_positive_Altchip_microchip_103_87_Microchips-produced_4000_Usable-semiconductor-yield-after-testing_60_Compatible-devices-in-the-market_75_Type-of-chip-architecture_Reduced-Instruction-Set-Computing_target"":""48"",""anecdote_high_positive_Solgistics_shipping-logistics_902_94_Packages-shipped_800_Number-of-orders-that-do-not-spend-time-in-a-bottleneck_400_Average-accuracy-of-shipments_90_Shipping-type_parcel_comparison"":""52""}",NA,03/03/2021 14:31:10
NA,488.1256059999969,follow_up,survey-html-form,11,4916,0.0-0.0-2.0-1.0-0.0-0.0-0.0-0.1-2.1,xsy1odd34u5zuyk,anecdotes,experiment2,prolific,1,1,anecdote_only,6,NA,NA,NA,"{""follow-up_anecdote_positive_high_rating_similarity-rating"":""7"",""follow-up_anecdote_positive_high_rating_relevance-specific-rating"":""3"",""follow-up_anecdote_positive_high_rating_relevance-general-rating"":""5"",""follow-up_anecdote_positive_high_text_justify"":""""}",NA,03/03/2021 14:31:10
NA,153.16168599999764,interstitial,survey-html-form,12,5071,0.0-0.0-2.0-1.0-0.0-0.0-0.0-0.2-0.2,xsy1odd34u5zuyk,anecdotes,experiment2,prolific,1,1,anecdote_only,6,NA,NA,NA,{},NA,03/03/2021 14:31:10
NA,NA,project_allocation,survey-html-form3,13,5286,0.0-0.0-2.0-1.0-0.0-0.0-0.0-0.2-1.2,xsy1odd34u5zuyk,anecdotes,experiment2,prolific,1,1,anecdote_only,6,NA,NA,NA,"{""anecdote_low_negative_Enfuel_oil-well_102_90_Oil-extracted_2000_Time-the-machinery-lasts-before-requiring-maintenance_7_Probability-of-finding-oil_80_Type-of-well_onshore_comparison"":""60"",""anecdote_low_negative_Codeck_software_905_92_Code-written_1000_Security-rating_85_Number-of-potential-customers-in-first-year_3_Target-users_ordinary-consumers_target"":""40""}",NA,03/03/2021 14:31:10
NA,395.97531600000457,follow_up,survey-html-form,14,5684,0.0-0.0-2.0-1.0-0.0-0.0-0.0-0.2-2.2,xsy1odd34u5zuyk,anecdotes,experiment2,prolific,1,1,anecdote_only,6,NA,NA,NA,"{""follow-up_anecdote_negative_low_rating_similarity-rating"":""4"",""follow-up_anecdote_negative_low_rating_relevance-specific-rating"":""7"",""follow-up_anecdote_negative_low_rating_relevance-general-rating"":""3"",""follow-up_anecdote_negative_low_text_justify"":""""}",NA,03/03/2021 14:31:10
NA,161.30617099999927,interstitial,survey-html-form,15,5847,0.0-0.0-2.0-1.0-0.0-0.0-0.0-0.3-0.3,xsy1odd34u5zuyk,anecdotes,experiment2,prolific,1,1,anecdote_only,6,NA,NA,NA,{},NA,03/03/2021 14:31:10
NA,NA,project_allocation,survey-html-form3,16,6157,0.0-0.0-2.0-1.0-0.0-0.0-0.0-0.3-1.3,xsy1odd34u5zuyk,anecdotes,experiment2,prolific,1,1,anecdote_only,6,NA,NA,NA,"{""anecdote_low_positive_Rural-Pass_railway_104_89_Railway-lines-built_5_Number-of-seats-filled-by-paying-customers-at-peak-hour_2000_Time-before-the-train-carriages-will-need-to-be-serviced_12_Operation-type_intercity_target"":""62"",""anecdote_low_positive_Refit_high-rise-construction_902_94_High-rises-built_8_Probability-that-the-builders-complete-construction-within-a-month-of-the-due-date_70_Number-of-tenant-expressions-of-interest_100_Primary-use_apartment_comparison"":""38""}",NA,03/03/2021 14:31:10
NA,323.9594119999929,follow_up,survey-html-form,17,6482,0.0-0.0-2.0-1.0-0.0-0.0-0.0-0.3-2.3,xsy1odd34u5zuyk,anecdotes,experiment2,prolific,1,1,anecdote_only,6,NA,NA,NA,"{""follow-up_anecdote_positive_low_rating_similarity-rating"":""3"",""follow-up_anecdote_positive_low_rating_relevance-specific-rating"":""5"",""follow-up_anecdote_positive_low_rating_relevance-general-rating"":""5"",""follow-up_anecdote_positive_low_text_justify"":""""}",NA,03/03/2021 14:31:10
NA,176.79164199999832,interstitial,survey-html-form,18,6661,0.0-0.0-2.0-1.0-0.0-0.0-0.0-0.4-0.4,xsy1odd34u5zuyk,anecdotes,experiment2,prolific,1,1,anecdote_only,6,NA,NA,NA,{},NA,03/03/2021 14:31:10
NA,NA,project_allocation,survey-html-form3,19,6885,0.0-0.0-2.0-1.0-0.0-0.0-0.0-0.4-1.4,xsy1odd34u5zuyk,anecdotes,experiment2,prolific,1,1,anecdote_only,6,NA,NA,NA,"{""statistics-only_NA_NA_Grown-Media_national-newspaper_903_93_Newspapers-printed_50000_Number-of-weekly-advertisers_80_Ink-that-is-not-discarded-due-to-impurities_5000_Payment-model_subscription_target"":""47"",""statistics-only_NA_NA_Healthgenic_pharmaceutical_104_88_Pills-pressed_300000_Shelf-life_20_Probability-of-symptom-reduction-after-a-week_90_Drug-type_prescription-only_comparison"":""53""}",NA,03/03/2021 14:31:10
NA,140.97876600000382,follow_up,survey-html-form,20,7026,0.0-0.0-2.0-1.0-0.0-0.0-0.0-0.4-2.4,xsy1odd34u5zuyk,anecdotes,experiment2,prolific,1,1,anecdote_only,6,NA,NA,NA,{},NA,03/03/2021 14:31:10
"[{""page_index"":0,""viewing_time"":186.03531400000156},{""page_index"":1,""viewing_time"":78.00208999999813}]",264.18762499999866,debrief,instructions,21,7292,0.0-0.0-3.0-0.0,xsy1odd34u5zuyk,anecdotes,experiment2,prolific,1,1,anecdote_only,6,NA,NA,NA,NA,NA,03/03/2021 14:31:10
