view_history,rt,stage,trial_type,trial_index,time_elapsed,internal_node_id,subject,thesis_project,experiment,sample,project_variation,anecdote_variation,anecdote_between,current_project_display_order,PROLIFIC_PID,STUDY_ID,SESSION_ID,responses,current_response,dateCreated
"[{""page_index"":0,""viewing_time"":71.56000599999857}]",71.7579069999914,welcome,instructions,0,72,0.0-0.0-0.0,h3kxdtrqdovcvbw,anecdotes,experiment2,prolific,5,2,anecdote_only,6,NA,NA,NA,NA,NA,03/03/2021 14:31:42
NA,161.4758620000032,id,survey-html-form,1,235,0.0-0.0-1.0-0.0,h3kxdtrqdovcvbw,anecdotes,experiment2,prolific,5,2,anecdote_only,6,NA,NA,NA,"{""prolific"":""test12342495873759949877""}",NA,03/03/2021 14:31:42
NA,254.84379399999568,contact,survey-html-form,2,491,0.0-0.0-1.0-1.0,h3kxdtrqdovcvbw,anecdotes,experiment2,prolific,5,2,anecdote_only,6,NA,NA,NA,"{""contact"":""no"",""address"":""test12345686774519892843""}",NA,03/03/2021 14:31:42
NA,718.8126509999931,demographics,survey-html-form,3,1211,0.0-0.0-1.0-2.0,h3kxdtrqdovcvbw,anecdotes,experiment2,prolific,5,2,anecdote_only,6,NA,NA,NA,"{""sex"":""female"",""age"":""24"",""language"":""Italian"",""language_other"":"""",""business_edu"":""83"",""business_exp"":""35"",""current"":""no""}",no,03/03/2021 14:31:42
NA,185.32499900000244,instructions,survey-html-form,4,1397,0.0-0.0-2.0-0.0-0.0,h3kxdtrqdovcvbw,anecdotes,experiment2,prolific,5,2,anecdote_only,6,NA,NA,NA,"{""instructions_test"":""99""}",NA,03/03/2021 14:31:42
NA,148.14322900001275,interstitial,survey-html-form,5,1547,0.0-0.0-2.0-19.0-0.0-0.0-0.0-0.0-0.0,h3kxdtrqdovcvbw,anecdotes,experiment2,prolific,5,2,anecdote_only,6,NA,NA,NA,{},NA,03/03/2021 14:31:42
NA,NA,project_allocation,survey-html-form3,6,1723,0.0-0.0-2.0-19.0-0.0-0.0-0.0-0.0-1.0,h3kxdtrqdovcvbw,anecdotes,experiment2,prolific,5,2,anecdote_only,6,NA,NA,NA,"{""anecdote_high_negative_Pharmacore_pharmaceutical_104_88_Pills-pressed_240000_Shelf-life_16_Probability-of-symptom-reduction-after-a-week_86_Drug-type_over-the-counter_comparison"":""54"",""anecdote_high_negative_Pressbloom_national-newspaper_903_93_Newspapers-printed_40000_Number-of-weekly-advertisers_64_Ink-that-is-not-discarded-due-to-impurities_4000_Payment-model_advertising_target"":""46""}",NA,03/03/2021 14:31:42
NA,261.27397000000474,follow_up,survey-html-form,7,1985,0.0-0.0-2.0-19.0-0.0-0.0-0.0-0.0-2.0,h3kxdtrqdovcvbw,anecdotes,experiment2,prolific,5,2,anecdote_only,6,NA,NA,NA,"{""follow-up_anecdote_negative_high_rating_similarity-rating"":""4"",""follow-up_anecdote_negative_high_rating_relevance-specific-rating"":""4"",""follow-up_anecdote_negative_high_rating_relevance-general-rating"":""6"",""follow-up_anecdote_negative_high_text_justify"":""""}",NA,03/03/2021 14:31:42
NA,111.73505899999691,interstitial,survey-html-form,8,2098,0.0-0.0-2.0-19.0-0.0-0.0-0.0-0.1-0.1,h3kxdtrqdovcvbw,anecdotes,experiment2,prolific,5,2,anecdote_only,6,NA,NA,NA,{},NA,03/03/2021 14:31:42
NA,NA,project_allocation,survey-html-form3,9,2307,0.0-0.0-2.0-19.0-0.0-0.0-0.0-0.1-1.1,h3kxdtrqdovcvbw,anecdotes,experiment2,prolific,5,2,anecdote_only,6,NA,NA,NA,"{""anecdote_high_positive_Dinerly_restaurant-chain_100_88_Restaurants-established_11_Number-of-reservations-on-a-Saturday-night_120_Positive-reviews_48_Restaurant-type_fast-food_target"":""42"",""anecdote_high_positive_Vital-Records_record-label_904_94_Record-projects-completed_10_Radio-listenership-nationally_2_Relevant-network-connections_16_Genre_rock_comparison"":""58""}",NA,03/03/2021 14:31:42
NA,256.0666549999978,follow_up,survey-html-form,10,2564,0.0-0.0-2.0-19.0-0.0-0.0-0.0-0.1-2.1,h3kxdtrqdovcvbw,anecdotes,experiment2,prolific,5,2,anecdote_only,6,NA,NA,NA,"{""follow-up_anecdote_positive_high_rating_similarity-rating"":""1"",""follow-up_anecdote_positive_high_rating_relevance-specific-rating"":""3"",""follow-up_anecdote_positive_high_rating_relevance-general-rating"":""6"",""follow-up_anecdote_positive_high_text_justify"":""""}",NA,03/03/2021 14:31:42
NA,121.8552189999973,interstitial,survey-html-form,11,2687,0.0-0.0-2.0-19.0-0.0-0.0-0.0-0.2-0.2,h3kxdtrqdovcvbw,anecdotes,experiment2,prolific,5,2,anecdote_only,6,NA,NA,NA,{},NA,03/03/2021 14:31:42
NA,NA,project_allocation,survey-html-form3,12,2852,0.0-0.0-2.0-19.0-0.0-0.0-0.0-0.2-1.2,h3kxdtrqdovcvbw,anecdotes,experiment2,prolific,5,2,anecdote_only,6,NA,NA,NA,"{""anecdote_low_negative_Erectic_high-rise-construction_104_89_High-rises-built_5_Probability-that-the-builders-complete-construction-within-a-month-of-the-due-date_63_Number-of-tenant-expressions-of-interest_60_Primary-use_mixed-office-retail_comparison"":""63"",""anecdote_low_negative_Railmont_railway_902_94_Railway-lines-built_3_Number-of-seats-filled-by-paying-customers-at-peak-hour_1200_Time-before-the-train-carriages-will-need-to-be-serviced_7_Operation-type_intracity_target"":""37""}",NA,03/03/2021 14:31:42
NA,674.0282119999961,follow_up,survey-html-form,13,3527,0.0-0.0-2.0-19.0-0.0-0.0-0.0-0.2-2.2,h3kxdtrqdovcvbw,anecdotes,experiment2,prolific,5,2,anecdote_only,6,NA,NA,NA,"{""follow-up_anecdote_negative_low_rating_similarity-rating"":""3"",""follow-up_anecdote_negative_low_rating_relevance-specific-rating"":""1"",""follow-up_anecdote_negative_low_rating_relevance-general-rating"":""1"",""follow-up_anecdote_negative_low_text_justify"":""""}",NA,03/03/2021 14:31:42
NA,149.02817800000912,interstitial,survey-html-form,14,3677,0.0-0.0-2.0-19.0-0.0-0.0-0.0-0.3-0.3,h3kxdtrqdovcvbw,anecdotes,experiment2,prolific,5,2,anecdote_only,6,NA,NA,NA,{},NA,03/03/2021 14:31:42
NA,NA,project_allocation,survey-html-form3,15,3861,0.0-0.0-2.0-19.0-0.0-0.0-0.0-0.3-1.3,h3kxdtrqdovcvbw,anecdotes,experiment2,prolific,5,2,anecdote_only,6,NA,NA,NA,"{""anecdote_low_positive_Logivia_shipping-logistics_902_94_Packages-shipped_1120_Number-of-orders-that-do-not-spend-time-in-a-bottleneck_560_Average-accuracy-of-shipments_99_Shipping-type_parcel_comparison"":""57"",""anecdote_low_positive_Microxy_microchip_103_87_Microchips-produced_5600_Usable-semiconductor-yield-after-testing_66_Compatible-devices-in-the-market_82_Type-of-chip-architecture_Reduced-Instruction-Set-Computing_target"":""43""}",NA,03/03/2021 14:31:42
NA,317.7175820000002,follow_up,survey-html-form,16,4180,0.0-0.0-2.0-19.0-0.0-0.0-0.0-0.3-2.3,h3kxdtrqdovcvbw,anecdotes,experiment2,prolific,5,2,anecdote_only,6,NA,NA,NA,"{""follow-up_anecdote_positive_low_rating_similarity-rating"":""1"",""follow-up_anecdote_positive_low_rating_relevance-specific-rating"":""3"",""follow-up_anecdote_positive_low_rating_relevance-general-rating"":""6"",""follow-up_anecdote_positive_low_text_justify"":""""}",NA,03/03/2021 14:31:42
NA,123.36170899999433,interstitial,survey-html-form,17,4304,0.0-0.0-2.0-19.0-0.0-0.0-0.0-0.4-0.4,h3kxdtrqdovcvbw,anecdotes,experiment2,prolific,5,2,anecdote_only,6,NA,NA,NA,{},NA,03/03/2021 14:31:42
NA,NA,project_allocation,survey-html-form3,18,4492,0.0-0.0-2.0-19.0-0.0-0.0-0.0-0.4-1.4,h3kxdtrqdovcvbw,anecdotes,experiment2,prolific,5,2,anecdote_only,6,NA,NA,NA,"{""statistics-only_NA_NA_Refinera_oil-well_102_90_Oil-extracted_2000_Time-the-machinery-lasts-before-requiring-maintenance_7_Probability-of-finding-oil_80_Type-of-well_offshore_comparison"":""57"",""statistics-only_NA_NA_Cweb_software_905_92_Code-written_1000_Security-rating_85_Number-of-potential-customers-in-first-year_3_Target-users_enterprise_target"":""43""}",NA,03/03/2021 14:31:42
NA,115.0011679999925,follow_up,survey-html-form,19,4608,0.0-0.0-2.0-19.0-0.0-0.0-0.0-0.4-2.4,h3kxdtrqdovcvbw,anecdotes,experiment2,prolific,5,2,anecdote_only,6,NA,NA,NA,{},NA,03/03/2021 14:31:42
"[{""page_index"":0,""viewing_time"":63.117881999999554},{""page_index"":1,""viewing_time"":62.29342899999301}]",125.61635799998749,debrief,instructions,20,4734,0.0-0.0-3.0-0.0,h3kxdtrqdovcvbw,anecdotes,experiment2,prolific,5,2,anecdote_only,6,NA,NA,NA,NA,NA,03/03/2021 14:31:42
