view_history,rt,stage,trial_type,trial_index,time_elapsed,internal_node_id,subject,thesis_project,experiment,sample,project_variation,anecdote_variation,anecdote_between,current_project_display_order,PROLIFIC_PID,STUDY_ID,SESSION_ID,responses,current_response,dateCreated
"[{""page_index"":0,""viewing_time"":33.89727699999767}]",34.11394799999812,welcome,instructions,0,35,0.0-0.0-0.0,7oso931124aqto0,anecdotes,experiment2,prolific,3,2,anecdote_only,6,NA,NA,NA,NA,NA,11/01/2021 10:00:11
NA,176.91512600000078,id,survey-html-form,1,213,0.0-0.0-1.0-0.0,7oso931124aqto0,anecdotes,experiment2,prolific,3,2,anecdote_only,6,NA,NA,NA,"{""prolific"":""test12349156383125158294""}",NA,11/01/2021 10:00:11
NA,269.97863900000146,contact,survey-html-form,2,484,0.0-0.0-1.0-1.0,7oso931124aqto0,anecdotes,experiment2,prolific,3,2,anecdote_only,6,NA,NA,NA,"{""contact"":""no"",""address"":""test12345356388924637497""}",NA,11/01/2021 10:00:11
NA,738.4022269999981,demographics,survey-html-form,3,1224,0.0-0.0-1.0-2.0,7oso931124aqto0,anecdotes,experiment2,prolific,3,2,anecdote_only,6,NA,NA,NA,"{""sex"":""female"",""age"":""71"",""language"":""Hebrew"",""language_other"":"""",""business_edu"":""90"",""business_exp"":""100"",""current"":""no""}",no,11/01/2021 10:00:11
NA,172.52672500000085,instructions,survey-html-form,4,1397,0.0-0.0-2.0-0.0-0.0,7oso931124aqto0,anecdotes,experiment2,prolific,3,2,anecdote_only,6,NA,NA,NA,"{""instructions_test"":""31""}",NA,11/01/2021 10:00:11
NA,170.75627900000245,interstitial,survey-html-form,5,1571,0.0-0.0-2.0-11.0-0.0-0.0-0.0-0.0-0.0,7oso931124aqto0,anecdotes,experiment2,prolific,3,2,anecdote_only,6,NA,NA,NA,{},NA,11/01/2021 10:00:11
NA,NA,project_allocation,survey-html-form3,6,1750,0.0-0.0-2.0-11.0-0.0-0.0-0.0-0.0-1.0,7oso931124aqto0,anecdotes,experiment2,prolific,3,2,anecdote_only,6,NA,NA,NA,"{""anecdote_high_negative_Cweb_software_905_92_Code-written_1400_Security-rating_84_Number-of-potential-customers-in-first-year_4_Target-users_enterprise_target"":""54"",""anecdote_high_negative_Refinera_oil-well_102_90_Oil-extracted_2800_Time-the-machinery-lasts-before-requiring-maintenance_10_Probability-of-finding-oil_84_Type-of-well_offshore_comparison"":""46""}",NA,11/01/2021 10:00:11
NA,258.59894700000314,follow_up,survey-html-form,7,2009,0.0-0.0-2.0-11.0-0.0-0.0-0.0-0.0-2.0,7oso931124aqto0,anecdotes,experiment2,prolific,3,2,anecdote_only,6,NA,NA,NA,"{""follow_up_rating_similarity"":""0"",""follow_up_rating_relevance_specific"":""2"",""follow_up_rating_relevance_general"":""6"",""follow_up_text_justify"":""""}",NA,11/01/2021 10:00:11
NA,118.03083300000253,interstitial,survey-html-form,8,2129,0.0-0.0-2.0-11.0-0.0-0.0-0.0-0.1-0.1,7oso931124aqto0,anecdotes,experiment2,prolific,3,2,anecdote_only,6,NA,NA,NA,{},NA,11/01/2021 10:00:11
NA,NA,project_allocation,survey-html-form3,9,2346,0.0-0.0-2.0-11.0-0.0-0.0-0.0-0.1-1.1,7oso931124aqto0,anecdotes,experiment2,prolific,3,2,anecdote_only,6,NA,NA,NA,"{""anecdote_high_positive_Railmont_railway_104_89_Railway-lines-built_4_Number-of-seats-filled-by-paying-customers-at-peak-hour_1800_Time-before-the-train-carriages-will-need-to-be-serviced_11_Operation-type_intracity_target"":""55"",""anecdote_high_positive_Erectic_high-rise-construction_902_94_High-rises-built_7_Probability-that-the-builders-complete-construction-within-a-month-of-the-due-date_63_Number-of-tenant-expressions-of-interest_90_Primary-use_mixed office-retail_comparison"":""45""}",NA,11/01/2021 10:00:11
NA,256.707381000002,follow_up,survey-html-form,10,2604,0.0-0.0-2.0-11.0-0.0-0.0-0.0-0.1-2.1,7oso931124aqto0,anecdotes,experiment2,prolific,3,2,anecdote_only,6,NA,NA,NA,"{""follow_up_rating_similarity"":""1"",""follow_up_rating_relevance_specific"":""2"",""follow_up_rating_relevance_general"":""4"",""follow_up_text_justify"":""""}",NA,11/01/2021 10:00:11
NA,130.22402999999713,interstitial,survey-html-form,11,2736,0.0-0.0-2.0-11.0-0.0-0.0-0.0-0.2-0.2,7oso931124aqto0,anecdotes,experiment2,prolific,3,2,anecdote_only,6,NA,NA,NA,{},NA,11/01/2021 10:00:11
NA,NA,project_allocation,survey-html-form3,12,2897,0.0-0.0-2.0-11.0-0.0-0.0-0.0-0.2-1.2,7oso931124aqto0,anecdotes,experiment2,prolific,3,2,anecdote_only,6,NA,NA,NA,"{""anecdote_low_negative_Microxy_microchip_902_94_Microchips-produced_2800_Usable-semiconductor-yield-after-testing_48_Compatible-devices-in-the-market_60_Type-of-chip-architecture_Reduced Instruction Set Computing_target"":""54"",""anecdote_low_negative_Logivia_shipping-logistics_103_87_Packages-shipped_560_Number-of-orders-that-do-not-spend-time-in-a-bottleneck_280_Average-accuracy-of-shipments_75_Shipping-type_parcel_comparison"":""46""}",NA,11/01/2021 10:00:11
NA,367.66943199999923,follow_up,survey-html-form,13,3265,0.0-0.0-2.0-11.0-0.0-0.0-0.0-0.2-2.2,7oso931124aqto0,anecdotes,experiment2,prolific,3,2,anecdote_only,6,NA,NA,NA,"{""follow_up_rating_similarity"":""5"",""follow_up_rating_relevance_specific"":""6"",""follow_up_rating_relevance_general"":""1"",""follow_up_text_justify"":""""}",NA,11/01/2021 10:00:11
NA,131.11117100000047,interstitial,survey-html-form,14,3400,0.0-0.0-2.0-11.0-0.0-0.0-0.0-0.3-0.3,7oso931124aqto0,anecdotes,experiment2,prolific,3,2,anecdote_only,6,NA,NA,NA,{},NA,11/01/2021 10:00:11
NA,NA,project_allocation,survey-html-form3,15,3629,0.0-0.0-2.0-11.0-0.0-0.0-0.0-0.3-1.3,7oso931124aqto0,anecdotes,experiment2,prolific,3,2,anecdote_only,6,NA,NA,NA,"{""anecdote_low_positive_Pressbloom_national-newspaper_104_88_Newspapers-printed_80000_Number-of-weekly-advertisers_128_Ink-that-is-not-discarded-due-to-impurities_8000_Payment-model_advertising_target"":""51"",""anecdote_low_positive_Pharmacore_pharmaceutical_903_93_Pills-pressed_480000_Shelf-life_32_Probability-of-symptom-reduction-after-a-week_99_Drug-type_over-the-counter_comparison"":""49""}",NA,11/01/2021 10:00:11
NA,315.53110900000183,follow_up,survey-html-form,16,3946,0.0-0.0-2.0-11.0-0.0-0.0-0.0-0.3-2.3,7oso931124aqto0,anecdotes,experiment2,prolific,3,2,anecdote_only,6,NA,NA,NA,"{""follow_up_rating_similarity"":""3"",""follow_up_rating_relevance_specific"":""0"",""follow_up_rating_relevance_general"":""6"",""follow_up_text_justify"":""""}",NA,11/01/2021 10:00:11
NA,123.07608600000094,interstitial,survey-html-form,17,4070,0.0-0.0-2.0-11.0-0.0-0.0-0.0-0.4-0.4,7oso931124aqto0,anecdotes,experiment2,prolific,3,2,anecdote_only,6,NA,NA,NA,{},NA,11/01/2021 10:00:11
NA,NA,project_allocation,survey-html-form3,18,4274,0.0-0.0-2.0-11.0-0.0-0.0-0.0-0.4-1.4,7oso931124aqto0,anecdotes,experiment2,prolific,3,2,anecdote_only,6,NA,NA,NA,"{""statistics_only_NA_NA_Dinerly_restaurant-chain_904_94_Restaurants-established_9_Number-of-reservations-on-a-Saturday-night_100_Positive-reviews_40_Restaurant-type_fast food_target"":""55"",""statistics_only_NA_NA_Vital-Records_record-label_100_88_Record-projects-completed_8_Radio-listenership-nationally_2_Relevant-network-connections_13_Genre_rock_comparison"":""45""}",NA,11/01/2021 10:00:11
NA,178.60472599999957,follow_up,survey-html-form,19,4454,0.0-0.0-2.0-11.0-0.0-0.0-0.0-0.4-2.4,7oso931124aqto0,anecdotes,experiment2,prolific,3,2,anecdote_only,6,NA,NA,NA,{},NA,11/01/2021 10:00:11
"[{""page_index"":0,""viewing_time"":51.5317389999982},{""page_index"":1,""viewing_time"":50.616940000000795}]",102.30864999999812,debrief,instructions,20,4556,0.0-0.0-3.0-0.0,7oso931124aqto0,anecdotes,experiment2,prolific,3,2,anecdote_only,6,NA,NA,NA,NA,NA,11/01/2021 10:00:11
