view_history,rt,stage,trial_type,trial_index,time_elapsed,internal_node_id,subject,thesis_project,experiment,sample,project_variation,anecdote_variation,anecdote_between,current_project_display_order,PROLIFIC_PID,STUDY_ID,SESSION_ID,responses,current_response,dateCreated
"[{""page_index"":0,""viewing_time"":129.73909600000866}]",130.0150120000012,welcome,instructions,0,132,0.0-0.0-0.0,mmw1ssoujzccukc,anecdotes,experiment2,prolific,1,1,anecdote_only,6,NA,NA,NA,NA,NA,12/01/2021 11:20:05
NA,252.81153699998526,id,survey-html-form,1,387,0.0-0.0-1.0-0.0,mmw1ssoujzccukc,anecdotes,experiment2,prolific,1,1,anecdote_only,6,NA,NA,NA,"{""prolific"":""test12346166298552773348""}",NA,12/01/2021 11:20:05
NA,420.60024699998166,contact,survey-html-form,2,809,0.0-0.0-1.0-1.0,mmw1ssoujzccukc,anecdotes,experiment2,prolific,1,1,anecdote_only,6,NA,NA,NA,"{""contact"":""no"",""address"":""test12349446364165659647""}",NA,12/01/2021 11:20:05
NA,1607.9601429999857,demographics,survey-html-form,3,2420,0.0-0.0-1.0-2.0,mmw1ssoujzccukc,anecdotes,experiment2,prolific,1,1,anecdote_only,6,NA,NA,NA,"{""sex"":""female"",""age"":""27"",""language"":""Other"",""language_other"":""test12343697842686295558"",""business_edu"":""17"",""business_exp"":""81"",""current"":""yes""}",yes,12/01/2021 11:20:05
NA,2332.366524000008,business_information,survey-html-form,4,4757,0.0-0.0-1.0-3.0-0.0,mmw1ssoujzccukc,anecdotes,experiment2,prolific,1,1,anecdote_only,6,NA,NA,NA,"{""company_name"":""test12341466863316384348"",""sector"":""Asset Management - Brokers, Fund Mgmt, Stock Exchange"",""sector_other"":"""",""employees"":""2064112"",""revenue"":""203520"",""role_company"":""Corporate President"",""role_company_other"":"""",""role_allocation"":""Provide information and analysis for the decision-makers at line of business level"",""role_allocation_other"":"""",""budget"":""429761""}",NA,12/01/2021 11:20:05
NA,254.16003300000466,instructions,survey-html-form,5,5012,0.0-0.0-2.0-0.0-0.0,mmw1ssoujzccukc,anecdotes,experiment2,prolific,1,1,anecdote_only,6,NA,NA,NA,"{""instructions_test"":""91""}",NA,12/01/2021 11:20:05
NA,162.55927299999985,interstitial,survey-html-form,6,5177,0.0-0.0-2.0-1.0-0.0-0.0-0.0-0.0-0.0,mmw1ssoujzccukc,anecdotes,experiment2,prolific,1,1,anecdote_only,6,NA,NA,NA,{},NA,12/01/2021 11:20:05
NA,NA,project_allocation,survey-html-form3,7,5403,0.0-0.0-2.0-1.0-0.0-0.0-0.0-0.0-1.0,mmw1ssoujzccukc,anecdotes,experiment2,prolific,1,1,anecdote_only,6,NA,NA,NA,"{""anecdote_high_negative_Savoro_restaurant-chain_904_94_Restaurants-established_9_Number-of-reservations-on-a-Saturday-night_100_Positive-reviews_40_Restaurant-type_fast food_target"":""53"",""anecdote_high_negative_Poppin_record-label_100_88_Record-projects-completed_8_Radio-listenership-nationally_2_Relevant-network-connections_13_Genre_rock_comparison"":""47""}",NA,12/01/2021 11:20:05
NA,433.3604110000242,follow_up,survey-html-form,8,5837,0.0-0.0-2.0-1.0-0.0-0.0-0.0-0.0-2.0,mmw1ssoujzccukc,anecdotes,experiment2,prolific,1,1,anecdote_only,6,NA,NA,NA,"{""follow-up_anecdote_negative_high_rating_similarity"":""5"",""follow-up_anecdote_negative_high_rating_relevance-specific"":""2"",""follow-up_anecdote_negative_high_rating_relevance-general"":""4"",""follow-up_anecdote_negative_high_text_justify"":""""}",NA,12/01/2021 11:20:05
NA,158.10854299999755,interstitial,survey-html-form,9,5997,0.0-0.0-2.0-1.0-0.0-0.0-0.0-0.1-0.1,mmw1ssoujzccukc,anecdotes,experiment2,prolific,1,1,anecdote_only,6,NA,NA,NA,{},NA,12/01/2021 11:20:05
NA,NA,project_allocation,survey-html-form3,10,6238,0.0-0.0-2.0-1.0-0.0-0.0-0.0-0.1-1.1,mmw1ssoujzccukc,anecdotes,experiment2,prolific,1,1,anecdote_only,6,NA,NA,NA,"{""anecdote_high_positive_Altchip_microchip_103_87_Microchips-produced_4000_Usable-semiconductor-yield-after-testing_60_Compatible-devices-in-the-market_75_Type-of-chip-architecture_Reduced Instruction Set Computing_target"":""44"",""anecdote_high_positive_Solgistics_shipping-logistics_902_94_Packages-shipped_800_Number-of-orders-that-do-not-spend-time-in-a-bottleneck_400_Average-accuracy-of-shipments_94_Shipping-type_parcel_comparison"":""56""}",NA,12/01/2021 11:20:05
NA,641.7274770000176,follow_up,survey-html-form,11,6882,0.0-0.0-2.0-1.0-0.0-0.0-0.0-0.1-2.1,mmw1ssoujzccukc,anecdotes,experiment2,prolific,1,1,anecdote_only,6,NA,NA,NA,"{""follow-up_anecdote_positive_high_rating_similarity"":""6"",""follow-up_anecdote_positive_high_rating_relevance-specific"":""0"",""follow-up_anecdote_positive_high_rating_relevance-general"":""0"",""follow-up_anecdote_positive_high_text_justify"":""""}",NA,12/01/2021 11:20:05
NA,207.05749499998637,interstitial,survey-html-form,12,7096,0.0-0.0-2.0-1.0-0.0-0.0-0.0-0.2-0.2,mmw1ssoujzccukc,anecdotes,experiment2,prolific,1,1,anecdote_only,6,NA,NA,NA,{},NA,12/01/2021 11:20:05
NA,NA,project_allocation,survey-html-form3,13,8042,0.0-0.0-2.0-1.0-0.0-0.0-0.0-0.2-1.2,mmw1ssoujzccukc,anecdotes,experiment2,prolific,1,1,anecdote_only,6,NA,NA,NA,"{""anecdote_low_negative_Codeck_software_905_92_Code-written_1000_Security-rating_60_Number-of-potential-customers-in-first-year_3_Target-users_ordinary consumers_target"":""50"",""anecdote_low_negative_Enfuel_oil-well_102_90_Oil-extracted_2000_Time-the-machinery-lasts-before-requiring-maintenance_7_Probability-of-finding-oil_80_Type-of-well_onshore_comparison"":""50""}",NA,12/01/2021 11:20:05
NA,2022.3772590000244,follow_up,survey-html-form,14,10076,0.0-0.0-2.0-1.0-0.0-0.0-0.0-0.2-2.2,mmw1ssoujzccukc,anecdotes,experiment2,prolific,1,1,anecdote_only,6,NA,NA,NA,"{""follow-up_anecdote_negative_low_rating_similarity"":""3"",""follow-up_anecdote_negative_low_rating_relevance-specific"":""4"",""follow-up_anecdote_negative_low_rating_relevance-general"":""1"",""follow-up_anecdote_negative_low_text_justify"":""""}",NA,12/01/2021 11:20:05
NA,529.8753189999843,interstitial,survey-html-form,15,10614,0.0-0.0-2.0-1.0-0.0-0.0-0.0-0.3-0.3,mmw1ssoujzccukc,anecdotes,experiment2,prolific,1,1,anecdote_only,6,NA,NA,NA,{},NA,12/01/2021 11:20:05
NA,NA,project_allocation,survey-html-form3,16,11124,0.0-0.0-2.0-1.0-0.0-0.0-0.0-0.3-1.3,mmw1ssoujzccukc,anecdotes,experiment2,prolific,1,1,anecdote_only,6,NA,NA,NA,"{""anecdote_low_positive_Rural-Pass_railway_104_89_Railway-lines-built_5_Number-of-seats-filled-by-paying-customers-at-peak-hour_2000_Time-before-the-train-carriages-will-need-to-be-serviced_12_Operation-type_intercity_target"":""51"",""anecdote_low_positive_Refit_high-rise-construction_902_94_High-rises-built_8_Probability-that-the-builders-complete-construction-within-a-month-of-the-due-date_70_Number-of-tenant-expressions-of-interest_100_Primary-use_apartment_comparison"":""49""}",NA,12/01/2021 11:20:05
NA,597.2251199999919,follow_up,survey-html-form,17,11739,0.0-0.0-2.0-1.0-0.0-0.0-0.0-0.3-2.3,mmw1ssoujzccukc,anecdotes,experiment2,prolific,1,1,anecdote_only,6,NA,NA,NA,"{""follow-up_anecdote_positive_low_rating_similarity"":""3"",""follow-up_anecdote_positive_low_rating_relevance-specific"":""6"",""follow-up_anecdote_positive_low_rating_relevance-general"":""3"",""follow-up_anecdote_positive_low_text_justify"":""""}",NA,12/01/2021 11:20:05
NA,347.9278320000103,interstitial,survey-html-form,18,12089,0.0-0.0-2.0-1.0-0.0-0.0-0.0-0.4-0.4,mmw1ssoujzccukc,anecdotes,experiment2,prolific,1,1,anecdote_only,6,NA,NA,NA,{},NA,12/01/2021 11:20:05
NA,NA,project_allocation,survey-html-form3,19,12451,0.0-0.0-2.0-1.0-0.0-0.0-0.0-0.4-1.4,mmw1ssoujzccukc,anecdotes,experiment2,prolific,1,1,anecdote_only,6,NA,NA,NA,"{""statistics-only_NA_NA_Grown-Media_national-newspaper_903_93_Newspapers-printed_50000_Number-of-weekly-advertisers_80_Ink-that-is-not-discarded-due-to-impurities_5000_Payment-model_subscription_target"":""43"",""statistics-only_NA_NA_Healthgenic_pharmaceutical_104_88_Pills-pressed_300000_Shelf-life_20_Probability-of-symptom-reduction-after-a-week_90_Drug-type_prescription-only_comparison"":""57""}",NA,12/01/2021 11:20:05
NA,190.21770099999412,follow_up,survey-html-form,20,12642,0.0-0.0-2.0-1.0-0.0-0.0-0.0-0.4-2.4,mmw1ssoujzccukc,anecdotes,experiment2,prolific,1,1,anecdote_only,6,NA,NA,NA,{},NA,12/01/2021 11:20:05
"[{""page_index"":0,""viewing_time"":84.08776199999738},{""page_index"":1,""viewing_time"":363.5637740000275}]",448.1022010000124,debrief,instructions,21,13093,0.0-0.0-3.0-0.0,mmw1ssoujzccukc,anecdotes,experiment2,prolific,1,1,anecdote_only,6,NA,NA,NA,NA,NA,12/01/2021 11:20:05
