view_history,rt,stage,trial_type,trial_index,time_elapsed,internal_node_id,subject,thesis_project,experiment,sample,project_variation,anecdote_variation,anecdote_between,current_project_display_order,PROLIFIC_PID,STUDY_ID,SESSION_ID,responses,current_response,dateCreated
"[{""page_index"":0,""viewing_time"":87.48782900000407}]",87.69266899999906,welcome,instructions,0,89,0.0-0.0-0.0,gowskrn050asep8,anecdotes,experiment2,prolific,1,2,anecdote_only,6,NA,NA,NA,NA,NA,11/01/2021 14:56:10
NA,183.2477410000024,id,survey-html-form,1,274,0.0-0.0-1.0-0.0,gowskrn050asep8,anecdotes,experiment2,prolific,1,2,anecdote_only,6,NA,NA,NA,"{""prolific"":""test12343985544388468982""}",NA,11/01/2021 14:56:10
NA,319.53329099999905,contact,survey-html-form,2,594,0.0-0.0-1.0-1.0,gowskrn050asep8,anecdotes,experiment2,prolific,1,2,anecdote_only,6,NA,NA,NA,"{""contact"":""yes"",""address"":""test12348979645365756878""}",NA,11/01/2021 14:56:10
NA,1080.2576140000042,demographics,survey-html-form,3,1676,0.0-0.0-1.0-2.0,gowskrn050asep8,anecdotes,experiment2,prolific,1,2,anecdote_only,6,NA,NA,NA,"{""sex"":""male"",""age"":""53"",""language"":""Other"",""language_other"":""test12346984578444845233"",""business_edu"":""81"",""business_exp"":""52"",""current"":""no""}",no,11/01/2021 14:56:10
NA,273.6790940000021,instructions,survey-html-form,4,1951,0.0-0.0-2.0-0.0-0.0,gowskrn050asep8,anecdotes,experiment2,prolific,1,2,anecdote_only,6,NA,NA,NA,"{""instructions_test"":""54""}",NA,11/01/2021 14:56:10
NA,155.36284800000294,interstitial,survey-html-form,5,2109,0.0-0.0-2.0-3.0-0.0-0.0-0.0-0.0-0.0,gowskrn050asep8,anecdotes,experiment2,prolific,1,2,anecdote_only,6,NA,NA,NA,{},NA,11/01/2021 14:56:10
NA,NA,project_allocation,survey-html-form3,6,2338,0.0-0.0-2.0-3.0-0.0-0.0-0.0-0.0-1.0,gowskrn050asep8,anecdotes,experiment2,prolific,1,2,anecdote_only,6,NA,NA,NA,"{""anecdote_high_negative_Dinerly_restaurant-chain_904_94_Restaurants-established_13_Number-of-reservations-on-a-Saturday-night_140_Positive-reviews_56_Restaurant-type_fast food_target"":""52"",""anecdote_high_negative_Vital-Records_record-label_100_88_Record-projects-completed_11_Radio-listenership-nationally_3_Relevant-network-connections_18_Genre_rock_comparison"":""48""}",NA,11/01/2021 14:56:10
NA,315.33467699999574,follow_up,survey-html-form,7,2654,0.0-0.0-2.0-3.0-0.0-0.0-0.0-0.0-2.0,gowskrn050asep8,anecdotes,experiment2,prolific,1,2,anecdote_only,6,NA,NA,NA,"{""follow-up_anecdote_negative_high_rating_similarity"":""5"",""follow-up_anecdote_negative_high_rating_relevance-specific"":""3"",""follow-up_anecdote_negative_high_rating_relevance-general"":""1"",""follow-up_anecdote_negative_high_text_justify"":""""}",NA,11/01/2021 14:56:10
NA,180.84485599999334,interstitial,survey-html-form,8,2836,0.0-0.0-2.0-3.0-0.0-0.0-0.0-0.1-0.1,gowskrn050asep8,anecdotes,experiment2,prolific,1,2,anecdote_only,6,NA,NA,NA,{},NA,11/01/2021 14:56:10
NA,NA,project_allocation,survey-html-form3,9,3015,0.0-0.0-2.0-3.0-0.0-0.0-0.0-0.1-1.1,gowskrn050asep8,anecdotes,experiment2,prolific,1,2,anecdote_only,6,NA,NA,NA,"{""anecdote_high_positive_Microxy_microchip_103_87_Microchips-produced_3600_Usable-semiconductor-yield-after-testing_54_Compatible-devices-in-the-market_68_Type-of-chip-architecture_Reduced Instruction Set Computing_target"":""40"",""anecdote_high_positive_Logivia_shipping-logistics_902_94_Packages-shipped_720_Number-of-orders-that-do-not-spend-time-in-a-bottleneck_360_Average-accuracy-of-shipments_85_Shipping-type_parcel_comparison"":""60""}",NA,11/01/2021 14:56:10
NA,312.2330469999997,follow_up,survey-html-form,10,3328,0.0-0.0-2.0-3.0-0.0-0.0-0.0-0.1-2.1,gowskrn050asep8,anecdotes,experiment2,prolific,1,2,anecdote_only,6,NA,NA,NA,"{""follow-up_anecdote_positive_high_rating_similarity"":""5"",""follow-up_anecdote_positive_high_rating_relevance-specific"":""1"",""follow-up_anecdote_positive_high_rating_relevance-general"":""0"",""follow-up_anecdote_positive_high_text_justify"":""""}",NA,11/01/2021 14:56:10
NA,118.38582200000019,interstitial,survey-html-form,11,3448,0.0-0.0-2.0-3.0-0.0-0.0-0.0-0.2-0.2,gowskrn050asep8,anecdotes,experiment2,prolific,1,2,anecdote_only,6,NA,NA,NA,{},NA,11/01/2021 14:56:10
NA,NA,project_allocation,survey-html-form3,12,3762,0.0-0.0-2.0-3.0-0.0-0.0-0.0-0.2-1.2,gowskrn050asep8,anecdotes,experiment2,prolific,1,2,anecdote_only,6,NA,NA,NA,"{""anecdote_low_negative_Cweb_software_905_92_Code-written_700_Security-rating_42_Number-of-potential-customers-in-first-year_2_Target-users_enterprise_target"":""55"",""anecdote_low_negative_Refinera_oil-well_102_90_Oil-extracted_1400_Time-the-machinery-lasts-before-requiring-maintenance_5_Probability-of-finding-oil_64_Type-of-well_offshore_comparison"":""45""}",NA,11/01/2021 14:56:10
NA,280.97399399999995,follow_up,survey-html-form,13,4044,0.0-0.0-2.0-3.0-0.0-0.0-0.0-0.2-2.2,gowskrn050asep8,anecdotes,experiment2,prolific,1,2,anecdote_only,6,NA,NA,NA,"{""follow-up_anecdote_negative_low_rating_similarity"":""1"",""follow-up_anecdote_negative_low_rating_relevance-specific"":""4"",""follow-up_anecdote_negative_low_rating_relevance-general"":""5"",""follow-up_anecdote_negative_low_text_justify"":""""}",NA,11/01/2021 14:56:10
NA,119.82842999999866,interstitial,survey-html-form,14,4165,0.0-0.0-2.0-3.0-0.0-0.0-0.0-0.3-0.3,gowskrn050asep8,anecdotes,experiment2,prolific,1,2,anecdote_only,6,NA,NA,NA,{},NA,11/01/2021 14:56:10
NA,NA,project_allocation,survey-html-form3,15,4337,0.0-0.0-2.0-3.0-0.0-0.0-0.0-0.3-1.3,gowskrn050asep8,anecdotes,experiment2,prolific,1,2,anecdote_only,6,NA,NA,NA,"{""anecdote_low_positive_Railmont_railway_104_89_Railway-lines-built_8_Number-of-seats-filled-by-paying-customers-at-peak-hour_3200_Time-before-the-train-carriages-will-need-to-be-serviced_19_Operation-type_intracity_target"":""65"",""anecdote_low_positive_Erectic_high-rise-construction_902_94_High-rises-built_13_Probability-that-the-builders-complete-construction-within-a-month-of-the-due-date_77_Number-of-tenant-expressions-of-interest_160_Primary-use_mixed office-retail_comparison"":""35""}",NA,11/01/2021 14:56:10
NA,375.33243200000015,follow_up,survey-html-form,16,4714,0.0-0.0-2.0-3.0-0.0-0.0-0.0-0.3-2.3,gowskrn050asep8,anecdotes,experiment2,prolific,1,2,anecdote_only,6,NA,NA,NA,"{""follow-up_anecdote_positive_low_rating_similarity"":""3"",""follow-up_anecdote_positive_low_rating_relevance-specific"":""0"",""follow-up_anecdote_positive_low_rating_relevance-general"":""5"",""follow-up_anecdote_positive_low_text_justify"":""""}",NA,11/01/2021 14:56:10
NA,122.21829199999956,interstitial,survey-html-form,17,4837,0.0-0.0-2.0-3.0-0.0-0.0-0.0-0.4-0.4,gowskrn050asep8,anecdotes,experiment2,prolific,1,2,anecdote_only,6,NA,NA,NA,{},NA,11/01/2021 14:56:10
NA,NA,project_allocation,survey-html-form3,18,5056,0.0-0.0-2.0-3.0-0.0-0.0-0.0-0.4-1.4,gowskrn050asep8,anecdotes,experiment2,prolific,1,2,anecdote_only,6,NA,NA,NA,"{""statistics-only_NA_NA_Pressbloom_national-newspaper_903_93_Newspapers-printed_50000_Number-of-weekly-advertisers_80_Ink-that-is-not-discarded-due-to-impurities_5000_Payment-model_advertising_target"":""46"",""statistics-only_NA_NA_Pharmacore_pharmaceutical_104_88_Pills-pressed_300000_Shelf-life_20_Probability-of-symptom-reduction-after-a-week_90_Drug-type_over-the-counter_comparison"":""54""}",NA,11/01/2021 14:56:10
NA,123.59145199999966,follow_up,survey-html-form,19,5180,0.0-0.0-2.0-3.0-0.0-0.0-0.0-0.4-2.4,gowskrn050asep8,anecdotes,experiment2,prolific,1,2,anecdote_only,6,NA,NA,NA,{},NA,11/01/2021 14:56:10
"[{""page_index"":0,""viewing_time"":57.603579999998146},{""page_index"":1,""viewing_time"":102.33798100000513}]",160.1759489999995,debrief,instructions,20,5341,0.0-0.0-3.0-0.0,gowskrn050asep8,anecdotes,experiment2,prolific,1,2,anecdote_only,6,NA,NA,NA,NA,NA,11/01/2021 14:56:10
