view_history,rt,stage,trial_type,trial_index,time_elapsed,internal_node_id,subject,thesis_project,experiment,sample,project_variation,anecdote_variation,anecdote_between,current_project_display_order,PROLIFIC_PID,STUDY_ID,SESSION_ID,responses,current_response,dateCreated
"[{""page_index"":0,""viewing_time"":53.50582200000531}]",54.20645099999888,welcome,instructions,0,57,0.0-0.0-0.0,bm3hwgagw2yb71s,anecdotes,experiment2,prolific,1,2,combined,6,NA,NA,NA,NA,NA,20/01/2021 13:24:25
NA,277.71798499999534,id,survey-html-form,1,337,0.0-0.0-1.0-0.0,bm3hwgagw2yb71s,anecdotes,experiment2,prolific,1,2,combined,6,NA,NA,NA,"{""prolific"":""test12342285878425619479""}",NA,20/01/2021 13:24:25
NA,489.1904690000075,contact,survey-html-form,2,833,0.0-0.0-1.0-1.0,bm3hwgagw2yb71s,anecdotes,experiment2,prolific,1,2,combined,6,NA,NA,NA,"{""contact"":""yes"",""address"":""test12343874424369676922""}",NA,20/01/2021 13:24:25
NA,1276.3741470000127,demographics,survey-html-form,3,2113,0.0-0.0-1.0-2.0,bm3hwgagw2yb71s,anecdotes,experiment2,prolific,1,2,combined,6,NA,NA,NA,"{""sex"":""female"",""age"":""19"",""language"":""Spanish"",""language_other"":"""",""business_edu"":""14"",""business_exp"":""78"",""current"":""no""}",no,20/01/2021 13:24:25
NA,268.4335760000067,instructions,survey-html-form,4,2385,0.0-0.0-2.0-0.0-0.0,bm3hwgagw2yb71s,anecdotes,experiment2,prolific,1,2,combined,6,NA,NA,NA,"{""instructions_test"":""24""}",NA,20/01/2021 13:24:25
NA,225.5724489999975,interstitial,survey-html-form,5,2615,0.0-0.0-2.0-4.0-0.0-0.0-0.0-0.0-0.0,bm3hwgagw2yb71s,anecdotes,experiment2,prolific,1,2,combined,6,NA,NA,NA,{},NA,20/01/2021 13:24:25
NA,NA,project_allocation,survey-html-form3,6,2928,0.0-0.0-2.0-4.0-0.0-0.0-0.0-0.0-1.0,bm3hwgagw2yb71s,anecdotes,experiment2,prolific,1,2,combined,6,NA,NA,NA,"{""anecdote_high_negative_Dinerly_restaurant-chain_903_93_Restaurants-established_13_Number-of-reservations-on-a-Saturday-night_140_Positive-reviews_56_Restaurant-type_fast food_target"":""42"",""anecdote_high_negative_Vital-Records_record-label_102_86_Record-projects-completed_11_Radio-listenership-nationally_3_Relevant-network-connections_18_Genre_rock_comparison"":""58""}",NA,20/01/2021 13:24:25
NA,529.8352709999958,follow_up,survey-html-form,7,3459,0.0-0.0-2.0-4.0-0.0-0.0-0.0-0.0-2.0,bm3hwgagw2yb71s,anecdotes,experiment2,prolific,1,2,combined,6,NA,NA,NA,"{""follow-up_anecdote_negative_high_rating_similarity-rating"":""2"",""follow-up_anecdote_negative_high_rating_relevance-specific-rating"":""5"",""follow-up_anecdote_negative_high_rating_relevance-general-rating"":""1"",""follow-up_anecdote_negative_high_text_justify"":""""}",NA,20/01/2021 13:24:25
NA,204.738269999993,interstitial,survey-html-form,8,3665,0.0-0.0-2.0-4.0-0.0-0.0-0.0-0.1-0.1,bm3hwgagw2yb71s,anecdotes,experiment2,prolific,1,2,combined,6,NA,NA,NA,{},NA,20/01/2021 13:24:25
NA,NA,project_allocation,survey-html-form3,9,4013,0.0-0.0-2.0-4.0-0.0-0.0-0.0-0.1-1.1,bm3hwgagw2yb71s,anecdotes,experiment2,prolific,1,2,combined,6,NA,NA,NA,"{""anecdote_high_positive_Logivia_shipping-logistics_905_93_Packages-shipped_720_Number-of-orders-that-do-not-spend-time-in-a-bottleneck_360_Average-accuracy-of-shipments_85_Shipping-type_parcel_comparison"":""55"",""anecdote_high_positive_Microxy_microchip_105_90_Microchips-produced_3600_Usable-semiconductor-yield-after-testing_54_Compatible-devices-in-the-market_68_Type-of-chip-architecture_Reduced Instruction Set Computing_target"":""45""}",NA,20/01/2021 13:24:25
NA,641.1399459999952,follow_up,survey-html-form,10,4657,0.0-0.0-2.0-4.0-0.0-0.0-0.0-0.1-2.1,bm3hwgagw2yb71s,anecdotes,experiment2,prolific,1,2,combined,6,NA,NA,NA,"{""follow-up_anecdote_positive_high_rating_similarity-rating"":""2"",""follow-up_anecdote_positive_high_rating_relevance-specific-rating"":""0"",""follow-up_anecdote_positive_high_rating_relevance-general-rating"":""6"",""follow-up_anecdote_positive_high_text_justify"":""""}",NA,20/01/2021 13:24:25
NA,205.90621400000873,interstitial,survey-html-form,11,4867,0.0-0.0-2.0-4.0-0.0-0.0-0.0-0.2-0.2,bm3hwgagw2yb71s,anecdotes,experiment2,prolific,1,2,combined,6,NA,NA,NA,{},NA,20/01/2021 13:24:25
NA,NA,project_allocation,survey-html-form3,12,5201,0.0-0.0-2.0-4.0-0.0-0.0-0.0-0.2-1.2,bm3hwgagw2yb71s,anecdotes,experiment2,prolific,1,2,combined,6,NA,NA,NA,"{""anecdote_low_negative_Refinera_oil-well_100_90_Oil-extracted_1400_Time-the-machinery-lasts-before-requiring-maintenance_5_Probability-of-finding-oil_64_Type-of-well_offshore_comparison"":""43"",""anecdote_low_negative_Cweb_software_901_91_Code-written_700_Security-rating_42_Number-of-potential-customers-in-first-year_2_Target-users_enterprise_target"":""57""}",NA,20/01/2021 13:24:25
NA,440.84577699999227,follow_up,survey-html-form,13,5644,0.0-0.0-2.0-4.0-0.0-0.0-0.0-0.2-2.2,bm3hwgagw2yb71s,anecdotes,experiment2,prolific,1,2,combined,6,NA,NA,NA,"{""follow-up_anecdote_negative_low_rating_similarity-rating"":""4"",""follow-up_anecdote_negative_low_rating_relevance-specific-rating"":""1"",""follow-up_anecdote_negative_low_rating_relevance-general-rating"":""0"",""follow-up_anecdote_negative_low_text_justify"":""""}",NA,20/01/2021 13:24:25
NA,267.70504900000014,interstitial,survey-html-form,14,5913,0.0-0.0-2.0-4.0-0.0-0.0-0.0-0.3-0.3,bm3hwgagw2yb71s,anecdotes,experiment2,prolific,1,2,combined,6,NA,NA,NA,{},NA,20/01/2021 13:24:25
NA,NA,project_allocation,survey-html-form3,15,6209,0.0-0.0-2.0-4.0-0.0-0.0-0.0-0.3-1.3,bm3hwgagw2yb71s,anecdotes,experiment2,prolific,1,2,combined,6,NA,NA,NA,"{""anecdote_low_positive_Railmont_railway_102_87_Railway-lines-built_8_Number-of-seats-filled-by-paying-customers-at-peak-hour_3200_Time-before-the-train-carriages-will-need-to-be-serviced_19_Operation-type_intracity_target"":""60"",""anecdote_low_positive_Erectic_high-rise-construction_900_95_High-rises-built_13_Probability-that-the-builders-complete-construction-within-a-month-of-the-due-date_77_Number-of-tenant-expressions-of-interest_160_Primary-use_mixed office-retail_comparison"":""40""}",NA,20/01/2021 13:24:25
NA,537.0334810000086,follow_up,survey-html-form,16,6748,0.0-0.0-2.0-4.0-0.0-0.0-0.0-0.3-2.3,bm3hwgagw2yb71s,anecdotes,experiment2,prolific,1,2,combined,6,NA,NA,NA,"{""follow-up_anecdote_positive_low_rating_similarity-rating"":""3"",""follow-up_anecdote_positive_low_rating_relevance-specific-rating"":""4"",""follow-up_anecdote_positive_low_rating_relevance-general-rating"":""5"",""follow-up_anecdote_positive_low_text_justify"":""""}",NA,20/01/2021 13:24:25
NA,192.75578500000302,interstitial,survey-html-form,17,6943,0.0-0.0-2.0-4.0-0.0-0.0-0.0-0.4-0.4,bm3hwgagw2yb71s,anecdotes,experiment2,prolific,1,2,combined,6,NA,NA,NA,{},NA,20/01/2021 13:24:25
NA,NA,project_allocation,survey-html-form3,18,7249,0.0-0.0-2.0-4.0-0.0-0.0-0.0-0.4-1.4,bm3hwgagw2yb71s,anecdotes,experiment2,prolific,1,2,combined,6,NA,NA,NA,"{""statistics-only_NA_NA_Pharmacore_pharmaceutical_102_90_Pills-pressed_300000_Shelf-life_20_Probability-of-symptom-reduction-after-a-week_90_Drug-type_over-the-counter_comparison"":""50"",""statistics-only_NA_NA_Pressbloom_national-newspaper_904_95_Newspapers-printed_50000_Number-of-weekly-advertisers_80_Ink-that-is-not-discarded-due-to-impurities_5000_Payment-model_advertising_target"":""50""}",NA,20/01/2021 13:24:25
NA,201.1094340000036,follow_up,survey-html-form,19,7451,0.0-0.0-2.0-4.0-0.0-0.0-0.0-0.4-2.4,bm3hwgagw2yb71s,anecdotes,experiment2,prolific,1,2,combined,6,NA,NA,NA,{},NA,20/01/2021 13:24:25
"[{""page_index"":0,""viewing_time"":112.46320499999729},{""page_index"":1,""viewing_time"":99.67921999999908}]",212.34776000000056,debrief,instructions,20,7665,0.0-0.0-3.0-0.0,bm3hwgagw2yb71s,anecdotes,experiment2,prolific,1,2,combined,6,NA,NA,NA,NA,NA,20/01/2021 13:24:25
