"trial_type","trial_index","time_elapsed","internal_node_id","subject","alignment_cond","awareness_cond","view_history","rt","url","responses","stimulus","button_pressed","question_order"
"pavlovia","0","7","0.0-0.0","ll46xxyurqlkbfs","highA","aware","","","","","","",""
"instructions","1","66980","0.0-1.0","ll46xxyurqlkbfs","highA","aware","[{""page_index"":0,""viewing_time"":9826.000000350177},{""page_index"":1,""viewing_time"":37236.89499963075},{""page_index"":2,""viewing_time"":11132.485000416636},{""page_index"":3,""viewing_time"":8777.24999981001}]","66973.68000028655","","","","",""
"external-html","2","77532","0.0-2.0","ll46xxyurqlkbfs","highA","aware","","10425.265000201762","js/consent.html","","","",""
"survey-html-form","3","88729","0.0-3.0","ll46xxyurqlkbfs","highA","aware","","11195.514999795705","","{""contact"":""no"",""address"":""""}","","",""
"survey-html-form","4","101694","0.0-4.0","ll46xxyurqlkbfs","highA","aware","","12963.314999826252","","{""prolific"":""5d9e1dc53155090015a83b02""}","","",""
"survey-html-form","5","124660","0.0-5.0","ll46xxyurqlkbfs","highA","aware","","22965.059999842197","","{""sex"":""female"",""age"":""27"",""other"":"""",""business_exp"":""0"",""business_edu"":""0""}","","",""
"html-button-response","6","127254","0.0-6.0","ll46xxyurqlkbfs","highA","aware","","2591.8650003150105","","","Welcome to the experiment. <br> Press the button below to begin.","0",""
"html-button-response","7","166635","0.0-7.0","ll46xxyurqlkbfs","highA","aware","","39380.90500002727","","","<p>Imagine that you are an executive in a large company composed of many individual businesses. <br> You will see various projects from these businesses and have to decide whether you would like to invest in them.</p> <p> Imagine that making good investment decisions will result in you receiving a generous bonus and a potential promotion, and that doing poorly will result in you receiving a large pay cut and a potential demotion.</p><p>We want to know what choices you would actually make in these scenarios.","0",""
"html-button-response","8","169914","0.0-8.0","ll46xxyurqlkbfs","highA","aware","","3276.8549998290837","","","You will now see 10 projects. Decide whether you would like to invest in each one.","0",""
"survey-multi-choice","9","195985","0.0-9.0-0.0","ll46xxyurqlkbfs","highA","aware","","26069.269999861717","","{""presentation_separate_cond_oil-well_140_240_0.55"":""No""}","","","[0]"
"survey-multi-choice","10","215516","0.0-9.0-0.1","ll46xxyurqlkbfs","highA","aware","","19525.815000291914","","{""presentation_separate_cond_oil-well_200_240_0.2"":""No""}","","","[0]"
"survey-multi-choice","11","236349","0.0-9.0-0.2","ll46xxyurqlkbfs","highA","aware","","20827.55499985069","","{""presentation_separate_cond_oil-well_110_240_0.59"":""Yes""}","","","[0]"
"survey-multi-choice","12","253101","0.0-9.0-0.3","ll46xxyurqlkbfs","highA","aware","","16747.090000193566","","{""presentation_separate_cond_oil-well_120_240_0.57"":""Yes""}","","","[0]"
"survey-multi-choice","13","268421","0.0-9.0-0.4","ll46xxyurqlkbfs","highA","aware","","15314.400000032037","","{""presentation_separate_cond_oil-well_160_240_0.45"":""No""}","","","[0]"
"survey-multi-choice","14","274654","0.0-9.0-0.5","ll46xxyurqlkbfs","highA","aware","","6228.5050000064075","","{""presentation_separate_cond_oil-well_100_240_0.6"":""Yes""}","","","[0]"
"survey-multi-choice","15","281058","0.0-9.0-0.6","ll46xxyurqlkbfs","highA","aware","","6398.47999997437","","{""presentation_separate_cond_oil-well_170_240_0.39"":""No""}","","","[0]"
"survey-multi-choice","16","287648","0.0-9.0-0.7","ll46xxyurqlkbfs","highA","aware","","6584.439999889582","","{""presentation_separate_cond_oil-well_180_240_0.32"":""No""}","","","[0]"
"survey-multi-choice","17","300307","0.0-9.0-0.8","ll46xxyurqlkbfs","highA","aware","","12653.395000379533","","{""presentation_separate_cond_oil-well_130_240_0.56"":""Yes""}","","","[0]"
"survey-multi-choice","18","307725","0.0-9.0-0.9","ll46xxyurqlkbfs","highA","aware","","7412.409999873489","","{""presentation_separate_cond_oil-well_190_240_0.26"":""No""}","","","[0]"
"html-button-response","19","309623","0.0-10.0","ll46xxyurqlkbfs","highA","aware","","1892.9700003936887","","","Next you will see some more projects.","0",""
"survey-multi-choice","20","409813","0.0-11.0","ll46xxyurqlkbfs","highA","aware","","100189.83000004664","","{""presentation_joint_cond_oil-well_200_240_0.2"":""Yes"",""presentation_joint_cond_oil-well_190_240_0.26"":""No"",""presentation_joint_cond_oil-well_180_240_0.32"":""No"",""presentation_joint_cond_oil-well_170_240_0.39"":""No"",""presentation_joint_cond_oil-well_160_240_0.45"":""No"",""presentation_joint_cond_oil-well_140_240_0.55"":""Yes"",""presentation_joint_cond_oil-well_130_240_0.56"":""Yes"",""presentation_joint_cond_oil-well_120_240_0.57"":""Yes"",""presentation_joint_cond_oil-well_110_240_0.59"":""Yes"",""presentation_joint_cond_oil-well_100_240_0.6"":""Yes""}","","","[1,4,9,5,2,3,7,8,0,6]"
"survey-multi-choice","21","468862","0.0-12.0","ll46xxyurqlkbfs","highA","aware","","59044.97000016272","","{""rep_aggregated_cond_all-projects_various_240_various"":""Yes""}","","","[0]"
"survey-multi-choice","22","482038","0.0-13.0-0.0","ll46xxyurqlkbfs","highA","aware","","13170.33000010997","","{""check_neg_cond_oil-well_100_250_0.2"":""No""}","","","[0]"
"survey-multi-choice","23","488218","0.0-13.0-0.1","ll46xxyurqlkbfs","highA","aware","","6173.584999982268","","{""check_neg_cond_oil-well_50_250_0.3"":""No""}","","","[0]"
"survey-multi-choice","24","511760","0.0-13.0-0.2","ll46xxyurqlkbfs","highA","aware","","23536.574999801815","","{""check_samuelson_single_cond_oil-well_200_300_0.5"":""No""}","","","[0]"
"survey-multi-choice","25","520746","0.0-13.0-0.3","ll46xxyurqlkbfs","highA","aware","","8979.284999892116","","{""check_samuelson_multiple_cond_oil-well_200_300_0.5"":""Yes""}","","","[0]"
"survey-multi-choice","26","539507","0.0-13.0-0.4","ll46xxyurqlkbfs","highA","aware","","18754.4900001958","","{""check_samuelson_aggregated_cond_oil-well_200_300_0.5"":""Yes""}","","","[0]"
"survey-multi-choice","27","552955","0.0-13.0-0.5","ll46xxyurqlkbfs","highA","aware","","13442.019999958575","","{""check_samuelson_original_single_cond_no-project_200_300_0.5"":""No""}","","","[0]"
"survey-multi-choice","28","555859","0.0-13.0-0.6","ll46xxyurqlkbfs","highA","aware","","2898.6200001090765","","{""check_samuelson_original_multiple_cond_no-project_200_300_0.5"":""Yes""}","","","[0]"
"survey-multi-choice","29","569369","0.0-13.0-0.7","ll46xxyurqlkbfs","highA","aware","","13504.155000206083","","{""check_samuelson_original_aggregated_cond_no-project_200_300_0.5"":""Yes""}","","","[0]"
"survey-multi-choice","30","578387","0.0-13.0-0.8","ll46xxyurqlkbfs","highA","aware","","9011.789999902248","","{""check_redelmeier_single_cond_no-project_2500_3000_0.5"":""Yes""}","","","[0]"
"survey-multi-choice","31","581481","0.0-13.0-0.9","ll46xxyurqlkbfs","highA","aware","","3088.3149998262525","","{""check_redelmeier_multiple_cond_no-project_2500_3000_0.5"":""Yes""}","","","[0]"
"survey-multi-choice","32","586690","0.0-13.0-0.10","ll46xxyurqlkbfs","highA","aware","","5202.980000060052","","{""check_redelmeier_aggregated_cond_no-project_2500_3000_0.5"":""Yes""}","","","[0]"
"instructions","33","610322","0.0-14.0","ll46xxyurqlkbfs","highA","aware","[{""page_index"":0,""viewing_time"":20237.80500004068},{""page_index"":1,""viewing_time"":3389.4450003281236}]","23627.845000009984","","","","",""
"html-button-response","34","612333","0.0-15.0","ll46xxyurqlkbfs","highA","aware","","2008.6900000460446","","","<p>Press below to complete the experiment. <br >Thank you!</p>","0",""
