"trial_type","trial_index","time_elapsed","internal_node_id","subject","alignment_cond","awareness_cond","view_history","rt","url","responses","stimulus","button_pressed","question_order"
"pavlovia","0","3","0.0-0.0","qaq42omc5devq4j","lowA","aware","","","","","","",""
"instructions","1","22855","0.0-1.0","qaq42omc5devq4j","lowA","aware","[{""page_index"":0,""viewing_time"":4043.5549998655915},{""page_index"":1,""viewing_time"":7979.885000037029},{""page_index"":2,""viewing_time"":6737.510000122711},{""page_index"":3,""viewing_time"":4089.6699998993427}]","22851.229999912903","","","","",""
"external-html","2","44934","0.0-2.0","qaq42omc5devq4j","lowA","aware","","21925.92000006698","js/consent.html","","","",""
"survey-html-form","3","65289","0.0-3.0","qaq42omc5devq4j","lowA","aware","","20352.119999937713","","{""contact"":""yes"",""address"":""tomashanzl299@gmail.com""}","","",""
"survey-html-form","4","70603","0.0-4.0","qaq42omc5devq4j","lowA","aware","","5311.33499997668","","{""prolific"":""5c1f694cce8ff10001aa3e0b""}","","",""
"survey-html-form","5","138935","0.0-5.0","qaq42omc5devq4j","lowA","aware","","68322.00499996543","","{""sex"":""male"",""age"":""21"",""other"":""Czech"",""business_exp"":""1"",""business_edu"":""0""}","","",""
"html-button-response","6","141534","0.0-6.0","qaq42omc5devq4j","lowA","aware","","2595.624999841675","","","Welcome to the experiment. <br> Press the button below to begin.","0",""
"html-button-response","7","151512","0.0-7.0","qaq42omc5devq4j","lowA","aware","","9975.94999987632","","","<p>Imagine that you are an executive in a large company composed of many individual businesses. <br> You will see various projects from these businesses and have to decide whether you would like to invest in them.</p> <p> Imagine that making good investment decisions will result in you receiving a generous bonus and a potential promotion, and that doing poorly will result in you receiving a large pay cut and a potential demotion.</p><p>We want to know what choices you would actually make in these scenarios.","0",""
"html-button-response","8","158585","0.0-8.0","qaq42omc5devq4j","lowA","aware","","7071.379999862984","","","You will now see 10 projects. Decide whether you would like to invest in each one.","0",""
"survey-multi-choice","9","215498","0.0-9.0-0.0","qaq42omc5devq4j","lowA","aware","","56906.27000015229","","{""presentation_separate_cond_oil-well_200_240_0.2"":""No""}","","","[0]"
"survey-multi-choice","10","229402","0.0-9.0-0.1","qaq42omc5devq4j","lowA","aware","","13898.790000006557","","{""presentation_separate_cond_microchip_190_240_0.26"":""No""}","","","[0]"
"survey-multi-choice","11","235371","0.0-9.0-0.2","qaq42omc5devq4j","lowA","aware","","5964.009999996051","","{""presentation_separate_cond_GMO_110_240_0.59"":""Yes""}","","","[0]"
"survey-multi-choice","12","246503","0.0-9.0-0.3","qaq42omc5devq4j","lowA","aware","","11129.034999990836","","{""presentation_separate_cond_railway_120_240_0.57"":""Yes""}","","","[0]"
"survey-multi-choice","13","255964","0.0-9.0-0.4","qaq42omc5devq4j","lowA","aware","","9456.264999927953","","{""presentation_separate_cond_national-newspaper_140_240_0.55"":""Yes""}","","","[0]"
"survey-multi-choice","14","265086","0.0-9.0-0.5","qaq42omc5devq4j","lowA","aware","","9116.52999999933","","{""presentation_separate_cond_pharmaceutical_130_240_0.56"":""Yes""}","","","[0]"
"survey-multi-choice","15","271259","0.0-9.0-0.6","qaq42omc5devq4j","lowA","aware","","6168.320000171661","","{""presentation_separate_cond_record-deal_180_240_0.32"":""Yes""}","","","[0]"
"survey-multi-choice","16","280532","0.0-9.0-0.7","qaq42omc5devq4j","lowA","aware","","9268.500000005588","","{""presentation_separate_cond_high-rise-construction_100_240_0.6"":""No""}","","","[0]"
"survey-multi-choice","17","310484","0.0-9.0-0.8","qaq42omc5devq4j","lowA","aware","","29946.914999978617","","{""presentation_separate_cond_shipping-logistics_170_240_0.39"":""No""}","","","[0]"
"survey-multi-choice","18","342161","0.0-9.0-0.9","qaq42omc5devq4j","lowA","aware","","31673.2099999208","","{""presentation_separate_cond_restaurant-chain_160_240_0.45"":""Yes""}","","","[0]"
"html-button-response","19","343941","0.0-10.0","qaq42omc5devq4j","lowA","aware","","1776.3499999418855","","","Next you will see some more projects.","0",""
"survey-multi-choice","20","421842","0.0-11.0","qaq42omc5devq4j","lowA","aware","","77893.05999991484","","{""presentation_joint_cond_oil-well_200_240_0.2"":""No"",""presentation_joint_cond_microchip_190_240_0.26"":""Yes"",""presentation_joint_cond_record-deal_180_240_0.32"":""No"",""presentation_joint_cond_shipping-logistics_170_240_0.39"":""Yes"",""presentation_joint_cond_restaurant-chain_160_240_0.45"":""Yes"",""presentation_joint_cond_national-newspaper_140_240_0.55"":""Yes"",""presentation_joint_cond_pharmaceutical_130_240_0.56"":""Yes"",""presentation_joint_cond_railway_120_240_0.57"":""Yes"",""presentation_joint_cond_GMO_110_240_0.59"":""No"",""presentation_joint_cond_high-rise-construction_100_240_0.6"":""No""}","","","[8,7,6,5,4,3,0,1,2,9]"
"survey-multi-choice","21","470819","0.0-12.0","qaq42omc5devq4j","lowA","aware","","48971.340000163764","","{""rep_aggregated_cond_all-projects_various_240_various"":""No""}","","","[0]"
"survey-multi-choice","22","484811","0.0-13.0-0.0","qaq42omc5devq4j","lowA","aware","","13986.04500014335","","{""check_neg_cond_oil-well_100_250_0.2"":""No""}","","","[0]"
"survey-multi-choice","23","489880","0.0-13.0-0.1","qaq42omc5devq4j","lowA","aware","","5064.309999812394","","{""check_neg_cond_oil-well_50_250_0.3"":""No""}","","","[0]"
"survey-multi-choice","24","494661","0.0-13.0-0.2","qaq42omc5devq4j","lowA","aware","","4775.1499998848885","","{""check_samuelson_single_cond_oil-well_200_300_0.5"":""Yes""}","","","[0]"
"survey-multi-choice","25","502589","0.0-13.0-0.3","qaq42omc5devq4j","lowA","aware","","7924.299999838695","","{""check_samuelson_multiple_cond_oil-well_200_300_0.5"":""Yes""}","","","[0]"
"survey-multi-choice","26","516438","0.0-13.0-0.4","qaq42omc5devq4j","lowA","aware","","13845.065000001341","","{""check_samuelson_aggregated_cond_oil-well_200_300_0.5"":""Yes""}","","","[0]"
"survey-multi-choice","27","533858","0.0-13.0-0.5","qaq42omc5devq4j","lowA","aware","","17415.22499988787","","{""check_samuelson_original_single_cond_no-project_200_300_0.5"":""No""}","","","[0]"
"survey-multi-choice","28","539337","0.0-13.0-0.6","qaq42omc5devq4j","lowA","aware","","5473.654999863356","","{""check_samuelson_original_multiple_cond_no-project_200_300_0.5"":""Yes""}","","","[0]"
"survey-multi-choice","29","546906","0.0-13.0-0.7","qaq42omc5devq4j","lowA","aware","","7564.125000033528","","{""check_samuelson_original_aggregated_cond_no-project_200_300_0.5"":""Yes""}","","","[0]"
"survey-multi-choice","30","692008","0.0-13.0-0.8","qaq42omc5devq4j","lowA","aware","","145096.1599999573","","{""check_redelmeier_single_cond_no-project_2500_3000_0.5"":""Yes""}","","","[0]"
"survey-multi-choice","31","696301","0.0-13.0-0.9","qaq42omc5devq4j","lowA","aware","","4288.345000008121","","{""check_redelmeier_multiple_cond_no-project_2500_3000_0.5"":""Yes""}","","","[0]"
"survey-multi-choice","32","705990","0.0-13.0-0.10","qaq42omc5devq4j","lowA","aware","","9682.369999820367","","{""check_redelmeier_aggregated_cond_no-project_2500_3000_0.5"":""Yes""}","","","[0]"
"instructions","33","717871","0.0-14.0","qaq42omc5devq4j","lowA","aware","[{""page_index"":0,""viewing_time"":7486.014999914914},{""page_index"":1,""viewing_time"":4390.0500000454485}]","11878.500000108033","","","","",""
"html-button-response","34","721024","0.0-15.0","qaq42omc5devq4j","lowA","aware","","3148.9150000270456","","","<p>Press below to complete the experiment. <br >Thank you!</p>","0",""
