"trial_type","trial_index","time_elapsed","internal_node_id","subject","alignment_cond","awareness_cond","view_history","rt","url","responses","stimulus","button_pressed","question_order"
"pavlovia","0","9","0.0-0.0","1qorbe9v6hrrddn","highA","aware","","","","","","",""
"instructions","1","632802","0.0-1.0","1qorbe9v6hrrddn","highA","aware","[{""page_index"":0,""viewing_time"":595982},{""page_index"":1,""viewing_time"":16591},{""page_index"":2,""viewing_time"":17872},{""page_index"":3,""viewing_time"":2344}]","632790","","","","",""
"external-html","2","653122","0.0-2.0","1qorbe9v6hrrddn","highA","aware","","20095","js/consent.html","","","",""
"survey-html-form","3","669622","0.0-3.0","1qorbe9v6hrrddn","highA","aware","","16495","","{""contact"":""no"",""address"":""""}","","",""
"survey-html-form","4","677574","0.0-4.0","1qorbe9v6hrrddn","highA","aware","","7947","","{""prolific"":""5c665e1948985d0001f09675""}","","",""
"survey-html-form","5","706501","0.0-5.0","1qorbe9v6hrrddn","highA","aware","","28921","","{""sex"":""male"",""age"":""32"",""other"":"""",""business_exp"":""3"",""business_edu"":""2""}","","",""
"html-button-response","6","709492","0.0-6.0","1qorbe9v6hrrddn","highA","aware","","2983","","","Welcome to the experiment. <br> Press the button below to begin.","0",""
"html-button-response","7","736307","0.0-7.0","1qorbe9v6hrrddn","highA","aware","","26811","","","<p>Imagine that you are an executive in a large company composed of many individual businesses. <br> You will see various projects from these businesses and have to decide whether you would like to invest in them.</p> <p> Imagine that making good investment decisions will result in you receiving a generous bonus and a potential promotion, and that doing poorly will result in you receiving a large pay cut and a potential demotion.</p><p>We want to know what choices you would actually make in these scenarios.","0",""
"html-button-response","8","741362","0.0-8.0","1qorbe9v6hrrddn","highA","aware","","5053","","","You will now see 10 projects. Decide whether you would like to invest in each one.","0",""
"survey-multi-choice","9","768041","0.0-9.0-0.0","1qorbe9v6hrrddn","highA","aware","","26644","","{""presentation_separate_cond_oil-well_140_240_0.55"":""No""}","","","[0]"
"survey-multi-choice","10","781687","0.0-9.0-0.1","1qorbe9v6hrrddn","highA","aware","","13637","","{""presentation_separate_cond_oil-well_170_240_0.39"":""No""}","","","[0]"
"survey-multi-choice","11","800630","0.0-9.0-0.2","1qorbe9v6hrrddn","highA","aware","","18935","","{""presentation_separate_cond_oil-well_200_240_0.2"":""No""}","","","[0]"
"survey-multi-choice","12","809543","0.0-9.0-0.3","1qorbe9v6hrrddn","highA","aware","","8904","","{""presentation_separate_cond_oil-well_120_240_0.57"":""No""}","","","[0]"
"survey-multi-choice","13","815548","0.0-9.0-0.4","1qorbe9v6hrrddn","highA","aware","","6000","","{""presentation_separate_cond_oil-well_100_240_0.6"":""Yes""}","","","[0]"
"survey-multi-choice","14","821582","0.0-9.0-0.5","1qorbe9v6hrrddn","highA","aware","","6029","","{""presentation_separate_cond_oil-well_180_240_0.32"":""Yes""}","","","[0]"
"survey-multi-choice","15","828854","0.0-9.0-0.6","1qorbe9v6hrrddn","highA","aware","","7267","","{""presentation_separate_cond_oil-well_110_240_0.59"":""Yes""}","","","[0]"
"survey-multi-choice","16","839630","0.0-9.0-0.7","1qorbe9v6hrrddn","highA","aware","","10769","","{""presentation_separate_cond_oil-well_190_240_0.26"":""Yes""}","","","[0]"
"survey-multi-choice","17","844687","0.0-9.0-0.8","1qorbe9v6hrrddn","highA","aware","","5052","","{""presentation_separate_cond_oil-well_130_240_0.56"":""No""}","","","[0]"
"survey-multi-choice","18","861268","0.0-9.0-0.9","1qorbe9v6hrrddn","highA","aware","","16572","","{""presentation_separate_cond_oil-well_160_240_0.45"":""Yes""}","","","[0]"
"html-button-response","19","863091","0.0-10.0","1qorbe9v6hrrddn","highA","aware","","1820","","","Next you will see some more projects.","0",""
"survey-multi-choice","20","1009961","0.0-11.0","1qorbe9v6hrrddn","highA","aware","","146861","","{""presentation_joint_cond_oil-well_200_240_0.2"":""Yes"",""presentation_joint_cond_oil-well_190_240_0.26"":""No"",""presentation_joint_cond_oil-well_180_240_0.32"":""No"",""presentation_joint_cond_oil-well_170_240_0.39"":""No"",""presentation_joint_cond_oil-well_160_240_0.45"":""Yes"",""presentation_joint_cond_oil-well_140_240_0.55"":""No"",""presentation_joint_cond_oil-well_130_240_0.56"":""Yes"",""presentation_joint_cond_oil-well_120_240_0.57"":""No"",""presentation_joint_cond_oil-well_110_240_0.59"":""Yes"",""presentation_joint_cond_oil-well_100_240_0.6"":""Yes""}","","","[3,2,8,7,0,9,1,5,4,6]"
"survey-multi-choice","21","1072691","0.0-12.0","1qorbe9v6hrrddn","highA","aware","","62724","","{""rep_aggregated_cond_all-projects_various_240_various"":""No""}","","","[0]"
"survey-multi-choice","22","1084260","0.0-13.0-0.0","1qorbe9v6hrrddn","highA","aware","","11562","","{""check_neg_cond_oil-well_100_250_0.2"":""No""}","","","[0]"
"survey-multi-choice","23","1091316","0.0-13.0-0.1","1qorbe9v6hrrddn","highA","aware","","7051","","{""check_neg_cond_oil-well_50_250_0.3"":""No""}","","","[0]"
"survey-multi-choice","24","1097692","0.0-13.0-0.2","1qorbe9v6hrrddn","highA","aware","","6373","","{""check_samuelson_single_cond_oil-well_200_300_0.5"":""No""}","","","[0]"
"survey-multi-choice","25","1116750","0.0-13.0-0.3","1qorbe9v6hrrddn","highA","aware","","19054","","{""check_samuelson_multiple_cond_oil-well_200_300_0.5"":""No""}","","","[0]"
"survey-multi-choice","26","1173415","0.0-13.0-0.4","1qorbe9v6hrrddn","highA","aware","","56653","","{""check_samuelson_aggregated_cond_oil-well_200_300_0.5"":""No""}","","","[0]"
"survey-multi-choice","27","1186608","0.0-13.0-0.5","1qorbe9v6hrrddn","highA","aware","","13187","","{""check_samuelson_original_single_cond_no-project_200_300_0.5"":""No""}","","","[0]"
"survey-multi-choice","28","1193254","0.0-13.0-0.6","1qorbe9v6hrrddn","highA","aware","","6638","","{""check_samuelson_original_multiple_cond_no-project_200_300_0.5"":""No""}","","","[0]"
"survey-multi-choice","29","1241616","0.0-13.0-0.7","1qorbe9v6hrrddn","highA","aware","","48356","","{""check_samuelson_original_aggregated_cond_no-project_200_300_0.5"":""Yes""}","","","[0]"
"survey-multi-choice","30","1250664","0.0-13.0-0.8","1qorbe9v6hrrddn","highA","aware","","9040","","{""check_redelmeier_single_cond_no-project_2500_3000_0.5"":""Yes""}","","","[0]"
"survey-multi-choice","31","1252939","0.0-13.0-0.9","1qorbe9v6hrrddn","highA","aware","","2266","","{""check_redelmeier_multiple_cond_no-project_2500_3000_0.5"":""Yes""}","","","[0]"
"survey-multi-choice","32","1267911","0.0-13.0-0.10","1qorbe9v6hrrddn","highA","aware","","14963","","{""check_redelmeier_aggregated_cond_no-project_2500_3000_0.5"":""Yes""}","","","[0]"
"instructions","33","1296826","0.0-14.0","1qorbe9v6hrrddn","highA","aware","[{""page_index"":0,""viewing_time"":24166},{""page_index"":1,""viewing_time"":4740}]","28906","","","","",""
"html-button-response","34","1298846","0.0-15.0","1qorbe9v6hrrddn","highA","aware","","2016","","","<p>Press below to complete the experiment. <br >Thank you!</p>","0",""
