"trial_type","trial_index","time_elapsed","internal_node_id","subject","alignment_cond","awareness_cond","view_history","rt","url","responses","stimulus","button_pressed","question_order"
"pavlovia","0","5","0.0-0.0","3b0v9zuu44oyfz8","highA","aware","","","","","","",""
"instructions","1","81159","0.0-1.0","3b0v9zuu44oyfz8","highA","aware","[{""page_index"":0,""viewing_time"":13928.369999979623},{""page_index"":1,""viewing_time"":47399.515000055544},{""page_index"":2,""viewing_time"":12351.95499996189},{""page_index"":3,""viewing_time"":7472.079999977723}]","81152.74000004865","","","","",""
"external-html","2","102094","0.0-2.0","3b0v9zuu44oyfz8","highA","aware","","20742.77000001166","js/consent.html","","","",""
"survey-html-form","3","108143","0.0-3.0","3b0v9zuu44oyfz8","highA","aware","","6047.030000016093","","{""contact"":""no"",""address"":""""}","","",""
"survey-html-form","4","114672","0.0-4.0","3b0v9zuu44oyfz8","highA","aware","","6527.615000028163","","{""prolific"":""5c797d0cb5254b001690625d""}","","",""
"survey-html-form","5","155016","0.0-5.0","3b0v9zuu44oyfz8","highA","aware","","40342.42000000086","","{""sex"":""male"",""age"":""53"",""other"":"""",""business_exp"":""0"",""business_edu"":""3""}","","",""
"html-button-response","6","156680","0.0-6.0","3b0v9zuu44oyfz8","highA","aware","","1662.1399999130517","","","Welcome to the experiment. <br> Press the button below to begin.","0",""
"html-button-response","7","173983","0.0-7.0","3b0v9zuu44oyfz8","highA","aware","","17301.855000085197","","","<p>Imagine that you are an executive in a large company composed of many individual businesses. <br> You will see various projects from these businesses and have to decide whether you would like to invest in them.</p> <p> Imagine that making good investment decisions will result in you receiving a generous bonus and a potential promotion, and that doing poorly will result in you receiving a large pay cut and a potential demotion.</p><p>We want to know what choices you would actually make in these scenarios.","0",""
"html-button-response","8","176935","0.0-8.0","3b0v9zuu44oyfz8","highA","aware","","2950.899999937974","","","You will now see 10 projects. Decide whether you would like to invest in each one.","0",""
"survey-multi-choice","9","197639","0.0-9.0-0.0","3b0v9zuu44oyfz8","highA","aware","","20702.515000011772","","{""presentation_separate_cond_oil-well_190_240_0.26"":""No""}","","","[0]"
"survey-multi-choice","10","210062","0.0-9.0-0.1","3b0v9zuu44oyfz8","highA","aware","","12421.380000072531","","{""presentation_separate_cond_oil-well_160_240_0.45"":""No""}","","","[0]"
"survey-multi-choice","11","220799","0.0-9.0-0.2","3b0v9zuu44oyfz8","highA","aware","","10734.520000056364","","{""presentation_separate_cond_oil-well_170_240_0.39"":""Yes""}","","","[0]"
"survey-multi-choice","12","232414","0.0-9.0-0.3","3b0v9zuu44oyfz8","highA","aware","","11613.819999969564","","{""presentation_separate_cond_oil-well_200_240_0.2"":""No""}","","","[0]"
"survey-multi-choice","13","250159","0.0-9.0-0.4","3b0v9zuu44oyfz8","highA","aware","","17742.36499995459","","{""presentation_separate_cond_oil-well_100_240_0.6"":""Yes""}","","","[0]"
"survey-multi-choice","14","265862","0.0-9.0-0.5","3b0v9zuu44oyfz8","highA","aware","","15702.114999992773","","{""presentation_separate_cond_oil-well_140_240_0.55"":""Yes""}","","","[0]"
"survey-multi-choice","15","277927","0.0-9.0-0.6","3b0v9zuu44oyfz8","highA","aware","","12062.43499997072","","{""presentation_separate_cond_oil-well_130_240_0.56"":""Yes""}","","","[0]"
"survey-multi-choice","16","290582","0.0-9.0-0.7","3b0v9zuu44oyfz8","highA","aware","","12653.56000000611","","{""presentation_separate_cond_oil-well_180_240_0.32"":""No""}","","","[0]"
"survey-multi-choice","17","309646","0.0-9.0-0.8","3b0v9zuu44oyfz8","highA","aware","","19062.55999999121","","{""presentation_separate_cond_oil-well_110_240_0.59"":""Yes""}","","","[0]"
"survey-multi-choice","18","327351","0.0-9.0-0.9","3b0v9zuu44oyfz8","highA","aware","","17702.515000011772","","{""presentation_separate_cond_oil-well_120_240_0.57"":""Yes""}","","","[0]"
"html-button-response","19","329311","0.0-10.0","3b0v9zuu44oyfz8","highA","aware","","1958.5649999789894","","","Next you will see some more projects.","0",""
"survey-multi-choice","20","448176","0.0-11.0","3b0v9zuu44oyfz8","highA","aware","","118862.45999997482","","{""presentation_joint_cond_oil-well_200_240_0.2"":""Yes"",""presentation_joint_cond_oil-well_190_240_0.26"":""No"",""presentation_joint_cond_oil-well_180_240_0.32"":""Yes"",""presentation_joint_cond_oil-well_170_240_0.39"":""No"",""presentation_joint_cond_oil-well_160_240_0.45"":""No"",""presentation_joint_cond_oil-well_140_240_0.55"":""Yes"",""presentation_joint_cond_oil-well_130_240_0.56"":""Yes"",""presentation_joint_cond_oil-well_120_240_0.57"":""Yes"",""presentation_joint_cond_oil-well_110_240_0.59"":""Yes"",""presentation_joint_cond_oil-well_100_240_0.6"":""Yes""}","","","[5,2,3,7,0,9,6,8,1,4]"
"survey-multi-choice","21","486383","0.0-12.0","3b0v9zuu44oyfz8","highA","aware","","38205.019999993965","","{""rep_aggregated_cond_all-projects_various_240_various"":""No""}","","","[0]"
"survey-multi-choice","22","499879","0.0-13.0-0.0","3b0v9zuu44oyfz8","highA","aware","","13494.249999988824","","{""check_neg_cond_oil-well_100_250_0.2"":""No""}","","","[0]"
"survey-multi-choice","23","511127","0.0-13.0-0.1","3b0v9zuu44oyfz8","highA","aware","","11246.41000002157","","{""check_neg_cond_oil-well_50_250_0.3"":""No""}","","","[0]"
"survey-multi-choice","24","519791","0.0-13.0-0.2","3b0v9zuu44oyfz8","highA","aware","","8662.484999978915","","{""check_samuelson_single_cond_oil-well_200_300_0.5"":""Yes""}","","","[0]"
"survey-multi-choice","25","535359","0.0-13.0-0.3","3b0v9zuu44oyfz8","highA","aware","","15566.4800000377","","{""check_samuelson_multiple_cond_oil-well_200_300_0.5"":""No""}","","","[0]"
"survey-multi-choice","26","547751","0.0-13.0-0.4","3b0v9zuu44oyfz8","highA","aware","","12390.124999918044","","{""check_samuelson_aggregated_cond_oil-well_200_300_0.5"":""No""}","","","[0]"
"survey-multi-choice","27","555855","0.0-13.0-0.5","3b0v9zuu44oyfz8","highA","aware","","8102.1949999267235","","{""check_samuelson_original_single_cond_no-project_200_300_0.5"":""Yes""}","","","[0]"
"survey-multi-choice","28","563039","0.0-13.0-0.6","3b0v9zuu44oyfz8","highA","aware","","7182.125000050291","","{""check_samuelson_original_multiple_cond_no-project_200_300_0.5"":""Yes""}","","","[0]"
"survey-multi-choice","29","574487","0.0-13.0-0.7","3b0v9zuu44oyfz8","highA","aware","","11446.60499994643","","{""check_samuelson_original_aggregated_cond_no-project_200_300_0.5"":""Yes""}","","","[0]"
"survey-multi-choice","30","582935","0.0-13.0-0.8","3b0v9zuu44oyfz8","highA","aware","","8446.125000016764","","{""check_redelmeier_single_cond_no-project_2500_3000_0.5"":""Yes""}","","","[0]"
"survey-multi-choice","31","587239","0.0-13.0-0.9","3b0v9zuu44oyfz8","highA","aware","","4301.505000097677","","{""check_redelmeier_multiple_cond_no-project_2500_3000_0.5"":""Yes""}","","","[0]"
"survey-multi-choice","32","593575","0.0-13.0-0.10","3b0v9zuu44oyfz8","highA","aware","","6334.459999925457","","{""check_redelmeier_aggregated_cond_no-project_2500_3000_0.5"":""Yes""}","","","[0]"
"instructions","33","608015","0.0-14.0","3b0v9zuu44oyfz8","highA","aware","[{""page_index"":0,""viewing_time"":9310.455000028014},{""page_index"":1,""viewing_time"":5127.924999920651}]","14439.134999993257","","","","",""
"html-button-response","34","611231","0.0-15.0","3b0v9zuu44oyfz8","highA","aware","","3214.41999997478","","","<p>Press below to complete the experiment. <br >Thank you!</p>","0",""
