"trial_type","trial_index","time_elapsed","internal_node_id","subject","alignment_cond","awareness_cond","view_history","rt","url","responses","stimulus","button_pressed","question_order"
"pavlovia","0","21","0.0-0.0","u9zdqlolc4hug38","highA","naive","","","","","","",""
"instructions","1","1658457","0.0-1.0","u9zdqlolc4hug38","highA","naive","[{""page_index"":0,""viewing_time"":1650998.424999998},{""page_index"":1,""viewing_time"":5445.435000001453},{""page_index"":2,""viewing_time"":1131.3450000016019},{""page_index"":3,""viewing_time"":828.349999996135}]","1658406.2799999956","","","","",""
"external-html","2","1663807","0.0-2.0","u9zdqlolc4hug38","highA","naive","","4494.975000008708","js/consent.html","","","",""
"survey-html-form","3","1666768","0.0-3.0","u9zdqlolc4hug38","highA","naive","","2955.29000001261","","{""contact"":""no"",""address"":""""}","","",""
"survey-html-form","4","1673369","0.0-4.0","u9zdqlolc4hug38","highA","naive","","6596.8749999883585","","{""prolific"":""5d0943bf52fb1200194137f5""}","","",""
"survey-html-form","5","1691458","0.0-5.0","u9zdqlolc4hug38","highA","naive","","18083.580000005895","","{""sex"":""female"",""age"":""24"",""other"":"""",""business_exp"":""6"",""business_edu"":""0""}","","",""
"html-button-response","6","1693057","0.0-6.0","u9zdqlolc4hug38","highA","naive","","1594.3350000015926","","","Welcome to the experiment. <br> Press the button below to begin.","0",""
"html-button-response","7","1696148","0.0-7.0","u9zdqlolc4hug38","highA","naive","","3087.279999977909","","","<p>Imagine that you are an executive in a large company composed of many individual businesses. <br> You will see various projects from these businesses and have to decide whether you would like to invest in them.</p> <p> Imagine that making good investment decisions will result in you receiving a generous bonus and a potential promotion, and that doing poorly will result in you receiving a large pay cut and a potential demotion.</p><p>We want to know what choices you would actually make in these scenarios.","0",""
"html-button-response","8","1697576","0.0-8.0","u9zdqlolc4hug38","highA","naive","","1425.8499999996275","","","Press to continue.","0",""
"survey-multi-choice","9","1705466","0.0-9.0-0.0","u9zdqlolc4hug38","highA","naive","","7880.539999983739","","{""presentation_separate_cond_oil-well_130_240_0.56"":""No""}","","","[0]"
"survey-multi-choice","10","1711178","0.0-9.0-0.1","u9zdqlolc4hug38","highA","naive","","5704.975000000559","","{""presentation_separate_cond_oil-well_140_240_0.55"":""No""}","","","[0]"
"survey-multi-choice","11","1720240","0.0-9.0-0.2","u9zdqlolc4hug38","highA","naive","","9054.459999984829","","{""presentation_separate_cond_oil-well_160_240_0.45"":""Yes""}","","","[0]"
"survey-multi-choice","12","1724077","0.0-9.0-0.3","u9zdqlolc4hug38","highA","naive","","3829.2749999964144","","{""presentation_separate_cond_oil-well_190_240_0.26"":""No""}","","","[0]"
"survey-multi-choice","13","1727420","0.0-9.0-0.4","u9zdqlolc4hug38","highA","naive","","3338.160000013886","","{""presentation_separate_cond_oil-well_200_240_0.2"":""No""}","","","[0]"
"survey-multi-choice","14","1733048","0.0-9.0-0.5","u9zdqlolc4hug38","highA","naive","","5621.679999982007","","{""presentation_separate_cond_oil-well_110_240_0.59"":""Yes""}","","","[0]"
"survey-multi-choice","15","1737644","0.0-9.0-0.6","u9zdqlolc4hug38","highA","naive","","4589.654999988852","","{""presentation_separate_cond_oil-well_180_240_0.32"":""No""}","","","[0]"
"survey-multi-choice","16","1741816","0.0-9.0-0.7","u9zdqlolc4hug38","highA","naive","","4165.355000004638","","{""presentation_separate_cond_oil-well_170_240_0.39"":""No""}","","","[0]"
"survey-multi-choice","17","1745714","0.0-9.0-0.8","u9zdqlolc4hug38","highA","naive","","3891.5300000226125","","{""presentation_separate_cond_oil-well_100_240_0.6"":""No""}","","","[0]"
"survey-multi-choice","18","1750064","0.0-9.0-0.9","u9zdqlolc4hug38","highA","naive","","4343.380000005709","","{""presentation_separate_cond_oil-well_120_240_0.57"":""Yes""}","","","[0]"
"html-button-response","19","1751375","0.0-10.0","u9zdqlolc4hug38","highA","naive","","1305.9300000022631","","","Next you will see some more projects.","0",""
"survey-multi-choice","20","1794077","0.0-11.0","u9zdqlolc4hug38","highA","naive","","42690.214999980526","","{""presentation_joint_cond_oil-well_200_240_0.2"":""No"",""presentation_joint_cond_oil-well_190_240_0.26"":""No"",""presentation_joint_cond_oil-well_180_240_0.32"":""No"",""presentation_joint_cond_oil-well_170_240_0.39"":""No"",""presentation_joint_cond_oil-well_160_240_0.45"":""No"",""presentation_joint_cond_oil-well_140_240_0.55"":""No"",""presentation_joint_cond_oil-well_130_240_0.56"":""Yes"",""presentation_joint_cond_oil-well_120_240_0.57"":""No"",""presentation_joint_cond_oil-well_110_240_0.59"":""Yes"",""presentation_joint_cond_oil-well_100_240_0.6"":""No""}","","","[2,1,3,6,5,4,8,0,7,9]"
"survey-multi-choice","21","1804770","0.0-12.0","u9zdqlolc4hug38","highA","naive","","10686.394999996992","","{""rep_aggregated_cond_all-projects_various_240_various"":""No""}","","","[0]"
"survey-multi-choice","22","1809356","0.0-13.0-0.0","u9zdqlolc4hug38","highA","naive","","4579.655000008643","","{""check_neg_cond_oil-well_100_250_0.2"":""No""}","","","[0]"
"survey-multi-choice","23","1811859","0.0-13.0-0.1","u9zdqlolc4hug38","highA","naive","","2496.2999999988824","","{""check_neg_cond_oil-well_50_250_0.3"":""No""}","","","[0]"
"survey-multi-choice","24","1816176","0.0-13.0-0.2","u9zdqlolc4hug38","highA","naive","","4312.430000019958","","{""check_samuelson_single_cond_oil-well_200_300_0.5"":""No""}","","","[0]"
"survey-multi-choice","25","1818846","0.0-13.0-0.3","u9zdqlolc4hug38","highA","naive","","2663.254999992205","","{""check_samuelson_multiple_cond_oil-well_200_300_0.5"":""No""}","","","[0]"
"survey-multi-choice","26","1823827","0.0-13.0-0.4","u9zdqlolc4hug38","highA","naive","","4972.905000002356","","{""check_samuelson_aggregated_cond_oil-well_200_300_0.5"":""No""}","","","[0]"
"survey-multi-choice","27","1827459","0.0-13.0-0.5","u9zdqlolc4hug38","highA","naive","","3625.3499999875203","","{""check_samuelson_original_single_cond_no-project_200_300_0.5"":""No""}","","","[0]"
"survey-multi-choice","28","1831153","0.0-13.0-0.6","u9zdqlolc4hug38","highA","naive","","3687.984999996843","","{""check_samuelson_original_multiple_cond_no-project_200_300_0.5"":""No""}","","","[0]"
"survey-multi-choice","29","1835399","0.0-13.0-0.7","u9zdqlolc4hug38","highA","naive","","4239.179999975022","","{""check_samuelson_original_aggregated_cond_no-project_200_300_0.5"":""No""}","","","[0]"
"survey-multi-choice","30","1839247","0.0-13.0-0.8","u9zdqlolc4hug38","highA","naive","","3841.1449999839533","","{""check_redelmeier_single_cond_no-project_2500_3000_0.5"":""Yes""}","","","[0]"
"survey-multi-choice","31","1841821","0.0-13.0-0.9","u9zdqlolc4hug38","highA","naive","","2568.390000000363","","{""check_redelmeier_multiple_cond_no-project_2500_3000_0.5"":""Yes""}","","","[0]"
"survey-multi-choice","32","1846455","0.0-13.0-0.10","u9zdqlolc4hug38","highA","naive","","4626.664999988861","","{""check_redelmeier_aggregated_cond_no-project_2500_3000_0.5"":""Yes""}","","","[0]"
"instructions","33","1859749","0.0-14.0","u9zdqlolc4hug38","highA","naive","[{""page_index"":0,""viewing_time"":2893.4899999876507},{""page_index"":1,""viewing_time"":3776.0550000239164},{""page_index"":0,""viewing_time"":6375.164999975823},{""page_index"":1,""viewing_time"":241.56500000390224}]","13289.2700000084","","","","",""
"html-button-response","34","1861057","0.0-15.0","u9zdqlolc4hug38","highA","naive","","1304.7500000102445","","","<p>Press below to complete the experiment. <br >Thank you!</p>","0",""
