"trial_type","trial_index","time_elapsed","internal_node_id","subject","alignment_cond","awareness_cond","view_history","rt","url","responses","stimulus","button_pressed","question_order"
"pavlovia","0","7","0.0-0.0","ydjfxzpfxfcu628","highA","naive","","","","","","",""
"instructions","1","16746","0.0-1.0","ydjfxzpfxfcu628","highA","naive","[{""page_index"":0,""viewing_time"":3754.080000013346},{""page_index"":1,""viewing_time"":7351.309999998193},{""page_index"":2,""viewing_time"":4527.969999995548},{""page_index"":3,""viewing_time"":1103.9849999942817}]","16737.965000007534","","","","",""
"external-html","2","20481","0.0-2.0","ydjfxzpfxfcu628","highA","naive","","3386.564999993425","js/consent.html","","","",""
"survey-html-form","3","25522","0.0-3.0","ydjfxzpfxfcu628","highA","naive","","5039.099999994505","","{""contact"":""no"",""address"":""""}","","",""
"survey-html-form","4","28850","0.0-4.0","ydjfxzpfxfcu628","highA","naive","","3327.560000005178","","{""prolific"":""5dd6f31451db1c6862b51473""}","","",""
"survey-html-form","5","47489","0.0-5.0","ydjfxzpfxfcu628","highA","naive","","18638.5199999786","","{""sex"":""male"",""age"":""33"",""other"":"""",""business_exp"":""13"",""business_edu"":""0""}","","",""
"html-button-response","6","48721","0.0-6.0","ydjfxzpfxfcu628","highA","naive","","1230.779999983497","","","Welcome to the experiment. <br> Press the button below to begin.","0",""
"html-button-response","7","66432","0.0-7.0","ydjfxzpfxfcu628","highA","naive","","17710.63499999582","","","<p>Imagine that you are an executive in a large company composed of many individual businesses. <br> You will see various projects from these businesses and have to decide whether you would like to invest in them.</p> <p> Imagine that making good investment decisions will result in you receiving a generous bonus and a potential promotion, and that doing poorly will result in you receiving a large pay cut and a potential demotion.</p><p>We want to know what choices you would actually make in these scenarios.","0",""
"html-button-response","8","67352","0.0-8.0","ydjfxzpfxfcu628","highA","naive","","919.2449999973178","","","Press to continue.","0",""
"survey-multi-choice","9","90025","0.0-9.0-0.0","ydjfxzpfxfcu628","highA","naive","","22670.54999998072","","{""presentation_separate_cond_oil-well_170_240_0.39"":""No""}","","","[0]"
"survey-multi-choice","10","101768","0.0-9.0-0.1","ydjfxzpfxfcu628","highA","naive","","11739.959999977145","","{""presentation_separate_cond_oil-well_110_240_0.59"":""No""}","","","[0]"
"survey-multi-choice","11","108528","0.0-9.0-0.2","ydjfxzpfxfcu628","highA","naive","","6756.005000002915","","{""presentation_separate_cond_oil-well_120_240_0.57"":""No""}","","","[0]"
"survey-multi-choice","12","113288","0.0-9.0-0.3","ydjfxzpfxfcu628","highA","naive","","4756.435000017518","","{""presentation_separate_cond_oil-well_100_240_0.6"":""No""}","","","[0]"
"survey-multi-choice","13","118088","0.0-9.0-0.4","ydjfxzpfxfcu628","highA","naive","","4796.315000014147","","{""presentation_separate_cond_oil-well_180_240_0.32"":""No""}","","","[0]"
"survey-multi-choice","14","123048","0.0-9.0-0.5","ydjfxzpfxfcu628","highA","naive","","4956.165000010515","","{""presentation_separate_cond_oil-well_200_240_0.2"":""No""}","","","[0]"
"survey-multi-choice","15","127696","0.0-9.0-0.6","ydjfxzpfxfcu628","highA","naive","","4643.96499999566","","{""presentation_separate_cond_oil-well_130_240_0.56"":""No""}","","","[0]"
"survey-multi-choice","16","131040","0.0-9.0-0.7","ydjfxzpfxfcu628","highA","naive","","3340.1000000012573","","{""presentation_separate_cond_oil-well_190_240_0.26"":""No""}","","","[0]"
"survey-multi-choice","17","135088","0.0-9.0-0.8","ydjfxzpfxfcu628","highA","naive","","4044.495000009192","","{""presentation_separate_cond_oil-well_160_240_0.45"":""No""}","","","[0]"
"survey-multi-choice","18","141600","0.0-9.0-0.9","ydjfxzpfxfcu628","highA","naive","","6508.340000000317","","{""presentation_separate_cond_oil-well_140_240_0.55"":""No""}","","","[0]"
"html-button-response","19","143992","0.0-10.0","ydjfxzpfxfcu628","highA","naive","","2388.3849999983795","","","Next you will see some more projects.","0",""
"survey-multi-choice","20","173033","0.0-11.0","ydjfxzpfxfcu628","highA","naive","","29038.730000000214","","{""presentation_joint_cond_oil-well_200_240_0.2"":""No"",""presentation_joint_cond_oil-well_190_240_0.26"":""No"",""presentation_joint_cond_oil-well_180_240_0.32"":""No"",""presentation_joint_cond_oil-well_170_240_0.39"":""No"",""presentation_joint_cond_oil-well_160_240_0.45"":""No"",""presentation_joint_cond_oil-well_140_240_0.55"":""No"",""presentation_joint_cond_oil-well_130_240_0.56"":""No"",""presentation_joint_cond_oil-well_120_240_0.57"":""No"",""presentation_joint_cond_oil-well_110_240_0.59"":""No"",""presentation_joint_cond_oil-well_100_240_0.6"":""No""}","","","[4,2,3,8,7,5,6,1,0,9]"
"survey-multi-choice","21","206712","0.0-12.0","ydjfxzpfxfcu628","highA","naive","","33675.38999998942","","{""rep_aggregated_cond_all-projects_various_240_various"":""No""}","","","[0]"
"survey-multi-choice","22","211008","0.0-13.0-0.0","ydjfxzpfxfcu628","highA","naive","","4292.045000009239","","{""check_neg_cond_oil-well_100_250_0.2"":""No""}","","","[0]"
"survey-multi-choice","23","214496","0.0-13.0-0.1","ydjfxzpfxfcu628","highA","naive","","3484.3849999888334","","{""check_neg_cond_oil-well_50_250_0.3"":""No""}","","","[0]"
"survey-multi-choice","24","218072","0.0-13.0-0.2","ydjfxzpfxfcu628","highA","naive","","3572.684999991907","","{""check_samuelson_single_cond_oil-well_200_300_0.5"":""Yes""}","","","[0]"
"survey-multi-choice","25","223673","0.0-13.0-0.3","ydjfxzpfxfcu628","highA","naive","","5596.3599999959115","","{""check_samuelson_multiple_cond_oil-well_200_300_0.5"":""No""}","","","[0]"
"survey-multi-choice","26","231161","0.0-13.0-0.4","ydjfxzpfxfcu628","highA","naive","","7484.185000008438","","{""check_samuelson_aggregated_cond_oil-well_200_300_0.5"":""No""}","","","[0]"
"survey-multi-choice","27","240736","0.0-13.0-0.5","ydjfxzpfxfcu628","highA","naive","","9571.710000018356","","{""check_samuelson_original_single_cond_no-project_200_300_0.5"":""Yes""}","","","[0]"
"survey-multi-choice","28","244624","0.0-13.0-0.6","ydjfxzpfxfcu628","highA","naive","","3884.3350000097416","","{""check_samuelson_original_multiple_cond_no-project_200_300_0.5"":""No""}","","","[0]"
"survey-multi-choice","29","251312","0.0-13.0-0.7","ydjfxzpfxfcu628","highA","naive","","6684.60999999661","","{""check_samuelson_original_aggregated_cond_no-project_200_300_0.5"":""No""}","","","[0]"
"survey-multi-choice","30","260224","0.0-13.0-0.8","ydjfxzpfxfcu628","highA","naive","","8907.860000006622","","{""check_redelmeier_single_cond_no-project_2500_3000_0.5"":""Yes""}","","","[0]"
"survey-multi-choice","31","262440","0.0-13.0-0.9","ydjfxzpfxfcu628","highA","naive","","2212.425000005169","","{""check_redelmeier_multiple_cond_no-project_2500_3000_0.5"":""Yes""}","","","[0]"
"survey-multi-choice","32","267640","0.0-13.0-0.10","ydjfxzpfxfcu628","highA","naive","","5196.429999981774","","{""check_redelmeier_aggregated_cond_no-project_2500_3000_0.5"":""Yes""}","","","[0]"
"instructions","33","271913","0.0-14.0","ydjfxzpfxfcu628","highA","naive","[{""page_index"":0,""viewing_time"":3028.7249999819323},{""page_index"":1,""viewing_time"":1239.8899999971036}]","4269.219999987399","","","","",""
"html-button-response","34","273312","0.0-15.0","ydjfxzpfxfcu628","highA","naive","","1398.830000020098","","","<p>Press below to complete the experiment. <br >Thank you!</p>","0",""
