"trial_type","trial_index","time_elapsed","internal_node_id","subject","alignment_cond","awareness_cond","view_history","rt","url","responses","stimulus","button_pressed","question_order"
"pavlovia","0","4","0.0-0.0","tqbnkqpd7bh8m1x","highA","aware","","","","","","",""
"instructions","1","17802","0.0-1.0","tqbnkqpd7bh8m1x","highA","aware","[{""page_index"":0,""viewing_time"":1814.3599999602884},{""page_index"":1,""viewing_time"":4648.4850000124425},{""page_index"":2,""viewing_time"":8010.044999886304},{""page_index"":3,""viewing_time"":3324.049999937415}]","17797.80499986373","","","","",""
"external-html","2","21161","0.0-2.0","tqbnkqpd7bh8m1x","highA","aware","","3194.649999961257","js/consent.html","","","",""
"survey-html-form","3","25293","0.0-3.0","tqbnkqpd7bh8m1x","highA","aware","","4129.970000125468","","{""contact"":""no"",""address"":""""}","","",""
"survey-html-form","4","27366","0.0-4.0","tqbnkqpd7bh8m1x","highA","aware","","2072.0200000796467","","{""prolific"":""5a0b7598a383a100011b4da8""}","","",""
"survey-html-form","5","36671","0.0-5.0","tqbnkqpd7bh8m1x","highA","aware","","9303.959999931976","","{""sex"":""male"",""age"":""20"",""other"":"""",""business_exp"":""1"",""business_edu"":""0""}","","",""
"html-button-response","6","37984","0.0-6.0","tqbnkqpd7bh8m1x","highA","aware","","1310.70000003092","","","Welcome to the experiment. <br> Press the button below to begin.","0",""
"html-button-response","7","42043","0.0-7.0","tqbnkqpd7bh8m1x","highA","aware","","4059.0749999973923","","","<p>Imagine that you are an executive in a large company composed of many individual businesses. <br> You will see various projects from these businesses and have to decide whether you would like to invest in them.</p> <p> Imagine that making good investment decisions will result in you receiving a generous bonus and a potential promotion, and that doing poorly will result in you receiving a large pay cut and a potential demotion.</p><p>We want to know what choices you would actually make in these scenarios.","0",""
"html-button-response","8","49862","0.0-8.0","tqbnkqpd7bh8m1x","highA","aware","","7817.4950000829995","","","You will now see 10 projects. Decide whether you would like to invest in each one.","0",""
"survey-multi-choice","9","59706","0.0-9.0-0.0","tqbnkqpd7bh8m1x","highA","aware","","9838.320000097156","","{""presentation_separate_cond_oil-well_110_240_0.59"":""No""}","","","[0]"
"survey-multi-choice","10","67868","0.0-9.0-0.1","tqbnkqpd7bh8m1x","highA","aware","","8146.880000131205","","{""presentation_separate_cond_oil-well_190_240_0.26"":""No""}","","","[0]"
"survey-multi-choice","11","71911","0.0-9.0-0.2","tqbnkqpd7bh8m1x","highA","aware","","4027.0000000018626","","{""presentation_separate_cond_oil-well_100_240_0.6"":""Yes""}","","","[0]"
"survey-multi-choice","12","75641","0.0-9.0-0.3","tqbnkqpd7bh8m1x","highA","aware","","3714.6750001702458","","{""presentation_separate_cond_oil-well_160_240_0.45"":""Yes""}","","","[0]"
"survey-multi-choice","13","84890","0.0-9.0-0.4","tqbnkqpd7bh8m1x","highA","aware","","9234.054999891669","","{""presentation_separate_cond_oil-well_120_240_0.57"":""No""}","","","[0]"
"survey-multi-choice","14","89966","0.0-9.0-0.5","tqbnkqpd7bh8m1x","highA","aware","","5059.455000096932","","{""presentation_separate_cond_oil-well_200_240_0.2"":""No""}","","","[0]"
"survey-multi-choice","15","94477","0.0-9.0-0.6","tqbnkqpd7bh8m1x","highA","aware","","4497.405000030994","","{""presentation_separate_cond_oil-well_130_240_0.56"":""Yes""}","","","[0]"
"survey-multi-choice","16","97726","0.0-9.0-0.7","tqbnkqpd7bh8m1x","highA","aware","","3232.994999969378","","{""presentation_separate_cond_oil-well_180_240_0.32"":""No""}","","","[0]"
"survey-multi-choice","17","103840","0.0-9.0-0.8","tqbnkqpd7bh8m1x","highA","aware","","6098.664999939501","","{""presentation_separate_cond_oil-well_140_240_0.55"":""Yes""}","","","[0]"
"survey-multi-choice","18","106447","0.0-9.0-0.9","tqbnkqpd7bh8m1x","highA","aware","","2593.275000108406","","{""presentation_separate_cond_oil-well_170_240_0.39"":""No""}","","","[0]"
"html-button-response","19","107387","0.0-10.0","tqbnkqpd7bh8m1x","highA","aware","","925.4000000655651","","","Next you will see some more projects.","0",""
"survey-multi-choice","20","314334","0.0-11.0","tqbnkqpd7bh8m1x","highA","aware","","206935.16000011005","","{""presentation_joint_cond_oil-well_200_240_0.2"":""No"",""presentation_joint_cond_oil-well_190_240_0.26"":""No"",""presentation_joint_cond_oil-well_180_240_0.32"":""No"",""presentation_joint_cond_oil-well_170_240_0.39"":""No"",""presentation_joint_cond_oil-well_160_240_0.45"":""Yes"",""presentation_joint_cond_oil-well_140_240_0.55"":""Yes"",""presentation_joint_cond_oil-well_130_240_0.56"":""Yes"",""presentation_joint_cond_oil-well_120_240_0.57"":""No"",""presentation_joint_cond_oil-well_110_240_0.59"":""Yes"",""presentation_joint_cond_oil-well_100_240_0.6"":""Yes""}","","","[4,2,5,9,3,8,1,7,0,6]"
"survey-multi-choice","21","327867","0.0-12.0","tqbnkqpd7bh8m1x","highA","aware","","13516.945000039414","","{""rep_aggregated_cond_all-projects_various_240_various"":""No""}","","","[0]"
"survey-multi-choice","22","332868","0.0-13.0-0.0","tqbnkqpd7bh8m1x","highA","aware","","4984.910000115633","","{""check_neg_cond_oil-well_100_250_0.2"":""No""}","","","[0]"
"survey-multi-choice","23","339108","0.0-13.0-0.1","tqbnkqpd7bh8m1x","highA","aware","","6225.474999984726","","{""check_neg_cond_oil-well_50_250_0.3"":""No""}","","","[0]"
"survey-multi-choice","24","341751","0.0-13.0-0.2","tqbnkqpd7bh8m1x","highA","aware","","2628.840000135824","","{""check_samuelson_single_cond_oil-well_200_300_0.5"":""Yes""}","","","[0]"
"survey-multi-choice","25","346648","0.0-13.0-0.3","tqbnkqpd7bh8m1x","highA","aware","","4881.545000011101","","{""check_samuelson_multiple_cond_oil-well_200_300_0.5"":""Yes""}","","","[0]"
"survey-multi-choice","26","355683","0.0-13.0-0.4","tqbnkqpd7bh8m1x","highA","aware","","9017.095000017434","","{""check_samuelson_aggregated_cond_oil-well_200_300_0.5"":""Yes""}","","","[0]"
"survey-multi-choice","27","360562","0.0-13.0-0.5","tqbnkqpd7bh8m1x","highA","aware","","4863.1700000260025","","{""check_samuelson_original_single_cond_no-project_200_300_0.5"":""Yes""}","","","[0]"
"survey-multi-choice","28","362958","0.0-13.0-0.6","tqbnkqpd7bh8m1x","highA","aware","","2380.3649998735636","","{""check_samuelson_original_multiple_cond_no-project_200_300_0.5"":""Yes""}","","","[0]"
"survey-multi-choice","29","369493","0.0-13.0-0.7","tqbnkqpd7bh8m1x","highA","aware","","6520.689999917522","","{""check_samuelson_original_aggregated_cond_no-project_200_300_0.5"":""Yes""}","","","[0]"
"survey-multi-choice","30","372973","0.0-13.0-0.8","tqbnkqpd7bh8m1x","highA","aware","","3464.9950000457466","","{""check_redelmeier_single_cond_no-project_2500_3000_0.5"":""Yes""}","","","[0]"
"survey-multi-choice","31","374724","0.0-13.0-0.9","tqbnkqpd7bh8m1x","highA","aware","","1735.4999999515712","","{""check_redelmeier_multiple_cond_no-project_2500_3000_0.5"":""No""}","","","[0]"
"survey-multi-choice","32","464928","0.0-13.0-0.10","tqbnkqpd7bh8m1x","highA","aware","","90186.14499992691","","{""check_redelmeier_aggregated_cond_no-project_2500_3000_0.5"":""Yes""}","","","[0]"
"instructions","33","470147","0.0-14.0","tqbnkqpd7bh8m1x","highA","aware","[{""page_index"":0,""viewing_time"":3248.5349997878075},{""page_index"":1,""viewing_time"":1956.0650000348687}]","5205.429999856278","","","","",""
"html-button-response","34","471055","0.0-15.0","tqbnkqpd7bh8m1x","highA","aware","","906.9949998520315","","","<p>Press below to complete the experiment. <br >Thank you!</p>","0",""
