"trial_type","trial_index","time_elapsed","internal_node_id","subject","alignment_cond","awareness_cond","view_history","rt","url","responses","stimulus","button_pressed","question_order"
"pavlovia","0","17","0.0-0.0","o1s6ejeu99cmtk7","lowA","naive","","","","","","",""
"instructions","1","28590","0.0-1.0","o1s6ejeu99cmtk7","lowA","naive","[{""page_index"":0,""viewing_time"":13715.10999999009},{""page_index"":1,""viewing_time"":6944.954999955371},{""page_index"":2,""viewing_time"":2355.824999976903},{""page_index"":3,""viewing_time"":5550.965000060387}]","28569.694999954663","","","","",""
"external-html","2","44638","0.0-2.0","o1s6ejeu99cmtk7","lowA","naive","","15734.035000088625","js/consent.html","","","",""
"survey-html-form","3","51168","0.0-3.0","o1s6ejeu99cmtk7","lowA","naive","","6523.625000030734","","{""contact"":""no"",""address"":""""}","","",""
"survey-html-form","4","56018","0.0-4.0","o1s6ejeu99cmtk7","lowA","naive","","4847.799999988638","","{""prolific"":""5a97e960f05361000171e1ec""}","","",""
"survey-html-form","5","94022","0.0-5.0","o1s6ejeu99cmtk7","lowA","naive","","38001.28500000574","","{""sex"":""female"",""age"":""30"",""other"":"""",""business_exp"":""3"",""business_edu"":""4""}","","",""
"html-button-response","6","95479","0.0-6.0","o1s6ejeu99cmtk7","lowA","naive","","1454.0299999061972","","","Welcome to the experiment. <br> Press the button below to begin.","0",""
"html-button-response","7","101873","0.0-7.0","o1s6ejeu99cmtk7","lowA","naive","","6391.9049999676645","","","<p>Imagine that you are an executive in a large company composed of many individual businesses. <br> You will see various projects from these businesses and have to decide whether you would like to invest in them.</p> <p> Imagine that making good investment decisions will result in you receiving a generous bonus and a potential promotion, and that doing poorly will result in you receiving a large pay cut and a potential demotion.</p><p>We want to know what choices you would actually make in these scenarios.","0",""
"html-button-response","8","103356","0.0-8.0","o1s6ejeu99cmtk7","lowA","naive","","1477.0750000607222","","","Press to continue.","0",""
"survey-multi-choice","9","138381","0.0-9.0-0.0","o1s6ejeu99cmtk7","lowA","naive","","35012.38500000909","","{""presentation_separate_cond_record-deal_180_240_0.32"":""No""}","","","[0]"
"survey-multi-choice","10","152889","0.0-9.0-0.1","o1s6ejeu99cmtk7","lowA","naive","","14497.994999983348","","{""presentation_separate_cond_restaurant-chain_160_240_0.45"":""No""}","","","[0]"
"survey-multi-choice","11","164260","0.0-9.0-0.2","o1s6ejeu99cmtk7","lowA","naive","","11365.259999991395","","{""presentation_separate_cond_pharmaceutical_130_240_0.56"":""No""}","","","[0]"
"survey-multi-choice","12","174267","0.0-9.0-0.3","o1s6ejeu99cmtk7","lowA","naive","","10000.949999899603","","{""presentation_separate_cond_shipping-logistics_170_240_0.39"":""No""}","","","[0]"
"survey-multi-choice","13","181867","0.0-9.0-0.4","o1s6ejeu99cmtk7","lowA","naive","","7593.59000006225","","{""presentation_separate_cond_microchip_190_240_0.26"":""No""}","","","[0]"
"survey-multi-choice","14","187487","0.0-9.0-0.5","o1s6ejeu99cmtk7","lowA","naive","","5614.60500000976","","{""presentation_separate_cond_high-rise-construction_100_240_0.6"":""No""}","","","[0]"
"survey-multi-choice","15","192711","0.0-9.0-0.6","o1s6ejeu99cmtk7","lowA","naive","","5215.779999969527","","{""presentation_separate_cond_GMO_110_240_0.59"":""No""}","","","[0]"
"survey-multi-choice","16","198541","0.0-9.0-0.7","o1s6ejeu99cmtk7","lowA","naive","","5818.130000028759","","{""presentation_separate_cond_oil-well_200_240_0.2"":""No""}","","","[0]"
"survey-multi-choice","17","202848","0.0-9.0-0.8","o1s6ejeu99cmtk7","lowA","naive","","4297.215000027791","","{""presentation_separate_cond_railway_120_240_0.57"":""No""}","","","[0]"
"survey-multi-choice","18","207510","0.0-9.0-0.9","o1s6ejeu99cmtk7","lowA","naive","","4656.294999993406","","{""presentation_separate_cond_national-newspaper_140_240_0.55"":""No""}","","","[0]"
"html-button-response","19","209103","0.0-10.0","o1s6ejeu99cmtk7","lowA","naive","","1588.9200000092387","","","Next you will see some more projects.","0",""
"survey-multi-choice","20","299252","0.0-11.0","o1s6ejeu99cmtk7","lowA","naive","","90140.72999998461","","{""presentation_joint_cond_oil-well_200_240_0.2"":""No"",""presentation_joint_cond_microchip_190_240_0.26"":""No"",""presentation_joint_cond_record-deal_180_240_0.32"":""No"",""presentation_joint_cond_shipping-logistics_170_240_0.39"":""No"",""presentation_joint_cond_restaurant-chain_160_240_0.45"":""No"",""presentation_joint_cond_national-newspaper_140_240_0.55"":""No"",""presentation_joint_cond_pharmaceutical_130_240_0.56"":""No"",""presentation_joint_cond_railway_120_240_0.57"":""No"",""presentation_joint_cond_GMO_110_240_0.59"":""No"",""presentation_joint_cond_high-rise-construction_100_240_0.6"":""No""}","","","[1,5,0,7,4,6,3,9,8,2]"
"survey-multi-choice","21","349938","0.0-12.0","o1s6ejeu99cmtk7","lowA","naive","","50681.72499991488","","{""rep_aggregated_cond_all-projects_various_240_various"":""No""}","","","[0]"
"survey-multi-choice","22","357780","0.0-13.0-0.0","o1s6ejeu99cmtk7","lowA","naive","","7836.615000036545","","{""check_neg_cond_oil-well_100_250_0.2"":""No""}","","","[0]"
"survey-multi-choice","23","367679","0.0-13.0-0.1","o1s6ejeu99cmtk7","lowA","naive","","9895.099999965169","","{""check_neg_cond_oil-well_50_250_0.3"":""No""}","","","[0]"
"survey-multi-choice","24","378438","0.0-13.0-0.2","o1s6ejeu99cmtk7","lowA","naive","","10756.835000007413","","{""check_samuelson_single_cond_oil-well_200_300_0.5"":""No""}","","","[0]"
"survey-multi-choice","25","395626","0.0-13.0-0.3","o1s6ejeu99cmtk7","lowA","naive","","17181.805000058375","","{""check_samuelson_multiple_cond_oil-well_200_300_0.5"":""No""}","","","[0]"
"survey-multi-choice","26","415678","0.0-13.0-0.4","o1s6ejeu99cmtk7","lowA","naive","","20043.214999954216","","{""check_samuelson_aggregated_cond_oil-well_200_300_0.5"":""Yes""}","","","[0]"
"survey-multi-choice","27","437844","0.0-13.0-0.5","o1s6ejeu99cmtk7","lowA","naive","","22156.414999975823","","{""check_samuelson_original_single_cond_no-project_200_300_0.5"":""No""}","","","[0]"
"survey-multi-choice","28","446443","0.0-13.0-0.6","o1s6ejeu99cmtk7","lowA","naive","","8593.40999997221","","{""check_samuelson_original_multiple_cond_no-project_200_300_0.5"":""No""}","","","[0]"
"survey-multi-choice","29","452633","0.0-13.0-0.7","o1s6ejeu99cmtk7","lowA","naive","","6183.3550001028925","","{""check_samuelson_original_aggregated_cond_no-project_200_300_0.5"":""No""}","","","[0]"
"survey-multi-choice","30","468945","0.0-13.0-0.8","o1s6ejeu99cmtk7","lowA","naive","","16306.250000023283","","{""check_redelmeier_single_cond_no-project_2500_3000_0.5"":""Yes""}","","","[0]"
"survey-multi-choice","31","474726","0.0-13.0-0.9","o1s6ejeu99cmtk7","lowA","naive","","5775.224999990314","","{""check_redelmeier_multiple_cond_no-project_2500_3000_0.5"":""No""}","","","[0]"
"survey-multi-choice","32","482327","0.0-13.0-0.10","o1s6ejeu99cmtk7","lowA","naive","","7597.949999966659","","{""check_redelmeier_aggregated_cond_no-project_2500_3000_0.5"":""No""}","","","[0]"
"instructions","33","491241","0.0-14.0","o1s6ejeu99cmtk7","lowA","naive","[{""page_index"":0,""viewing_time"":4666.629999992438},{""page_index"":1,""viewing_time"":4243.674999917857}]","8911.049999995157","","","","",""
"html-button-response","34","492769","0.0-15.0","o1s6ejeu99cmtk7","lowA","naive","","1525.9700000751764","","","<p>Press below to complete the experiment. <br >Thank you!</p>","0",""
